SensorId, TimeStamp (s), FrameNumber, AccX (g), AccY (g), AccZ (g), GyroX (deg/s), GyroY (deg/s), GyroZ (deg/s), MagX (uT), MagY (uT), MagZ (uT), EulerX (deg), EulerY (deg), EulerZ (deg), QuatW, QuatX, QuatY, QuatZ, LinAccX (g), LinAccY (g), LinAccZ (g), Pressure (kPa), Altitude (m), Temperature (degC), HeaveMotion (m)
1, 0.0000, 0, 0.0149, 0.0306, -1.0156, 0.6483, 0.3001, -0.2425, 19.4095, 25.6065, -64.6887, -1.2636, 0.4402, 41.2438, 0.9358, 0.0117, 0.0003, -0.3522, 0.0000, 0.0000, 0.0000, 0.0000, 0.0000, 0.0000, 0.0000
1, 0.0025, 1, 0.0149, 0.0306, -1.0156, 0.6483, 0.3001, -0.2425, 19.4095, 25.6065, -64.6887, -1.2626, 0.4414, 41.2417, 0.9359, 0.0117, 0.0003, -0.3522, 0.0000, 0.0000, 0.0000, 0.0000, 0.0000, 0.0000, 0.0000
1, 0.0050, 2, 0.0153, 0.0292, -1.0162, -0.9247, -0.1285, 0.8798, 19.4095, 25.9281, -64.1041, -1.2639, 0.4407, 41.2424, 0.9359, 0.0117, 0.0003, -0.3522, 0.0000, 0.0000, 0.0000, 0.0000, 0.0000, 0.0000, 0.0000
1, 0.0075, 3, 0.0163, 0.0290, -1.0149, -0.9234, -0.1299, 1.0896, 19.4095, 25.9281, -64.1041, -1.2650, 0.4401, 41.2435, 0.9358, 0.0117, 0.0003, -0.3522, 0.0000, 0.0000, 0.0000, 0.0000, 0.0000, 0.0000, 0.0000
1, 0.0150, 4, 0.0149, 0.0282, -1.0152, 0.3666, -0.1834, 0.1139, 19.4095, 25.9281, -64.1041, -1.2656, 0.4399, 41.2424, 0.9359, 0.0117, 0.0003, -0.3522, 0.0000, 0.0000, 0.0000, 0.0000, 0.0000, 0.0000, 0.0000
1, 0.0175, 5, 0.0131, 0.0278, -1.0170, 0.4341, 0.0932, -0.2399, 19.5849, 25.8696, -64.2794, -1.2647, 0.4405, 41.2401, 0.9359, 0.0117, 0.0003, -0.3522, 0.0000, 0.0000, 0.0000, 0.0000, 0.0000, 0.0000, 0.0000
1, 0.0200, 6, 0.0133, 0.0309, -1.0158, -0.2865, 0.2930, -0.1044, 19.5849, 25.8696, -64.2794, -1.2684, 0.4422, 41.2382, 0.9359, 0.0117, 0.0003, -0.3522, 0.0000, 0.0000, 0.0000, 0.0000, 0.0000, 0.0000, 0.0000
1, 0.0225, 7, 0.0122, 0.0358, -1.0153, -0.6446, 0.2888, 0.1747, 19.5849, 25.8696, -64.2794, -1.2737, 0.4421, 41.2372, 0.9359, 0.0118, 0.0003, -0.3522, 0.0000, 0.0000, 0.0000, 0.0000, 0.0000, 0.0000, 0.0000
1, 0.0250, 8, 0.0152, 0.0457, -1.0140, -1.2884, 0.2124, 0.7341, 19.5849, 25.8696, -64.2794, -1.2806, 0.4419, 41.2377, 0.9359, 0.0118, 0.0003, -0.3522, 0.0000, 0.0000, 0.0000, 0.0000, 0.0000, 0.0000, 0.0000
1, 0.0275, 9, 0.0188, 0.0448, -1.0145, -2.2187, 0.1328, 1.5027, 19.5849, 25.8696, -64.2794, -1.2872, 0.4418, 41.2403, 0.9359, 0.0119, 0.0003, -0.3522, 0.0000, 0.0000, 0.0000, 0.0000, 0.0000, 0.0000, 0.0000
1, 0.0300, 10, 0.0171, 0.0271, -1.0140, -3.0054, -0.0135, 2.1328, 18.9126, 25.6650, -64.7764, -1.2926, 0.4407, 41.2443, 0.9358, 0.0119, 0.0004, -0.3522, 0.0000, 0.0000, 0.0000, 0.0000, 0.0000, 0.0000, 0.0000
1, 0.0325, 11, 0.0160, 0.0226, -1.0162, -2.5036, -0.0759, 1.7151, 18.9126, 25.6650, -64.7764, -1.2960, 0.4395, 41.2472, 0.9358, 0.0119, 0.0004, -0.3522, 0.0000, 0.0000, 0.0000, 0.0000, 0.0000, 0.0000, 0.0000
1, 0.0350, 12, 0.0159, 0.0262, -1.0121, -1.4981, -0.0670, 1.3673, 18.9126, 25.6650, -64.7764, -1.2974, 0.4385, 41.2490, 0.9358, 0.0119, 0.0004, -0.3523, 0.0000, 0.0000, 0.0000, 0.0000, 0.0000, 0.0000, 0.0000
1, 0.0375, 13, 0.0154, 0.0357, -1.0166, -1.5014, 0.0722, 1.0155, 18.9126, 25.6650, -64.7764, -1.3012, 0.4378, 41.2500, 0.9358, 0.0120, 0.0004, -0.3523, 0.0000, 0.0000, 0.0000, 0.0000, 0.0000, 0.0000, 0.0000
1, 0.0400, 14, 0.0149, 0.0351, -1.0162, -1.7214, 0.5502, 1.0079, 18.9126, 25.6650, -64.7764, -1.3049, 0.4379, 41.2510, 0.9358, 0.0120, 0.0004, -0.3523, 0.0000, 0.0000, 0.0000, 0.0000, 0.0000, 0.0000, 0.0000
1, 0.0425, 15, 0.0118, 0.0226, -1.0141, -2.0794, 0.6815, 1.4948, 20.0234, 25.4019, -65.0395, -1.3072, 0.4379, 41.2540, 0.9358, 0.0120, 0.0004, -0.3523, 0.0000, 0.0000, 0.0000, 0.0000, 0.0000, 0.0000, 0.0000
1, 0.0450, 16, 0.0132, 0.0177, -1.0141, -2.0755, 0.4738, 1.8476, 20.0234, 25.4019, -65.0395, -1.3087, 0.4376, 41.2578, 0.9358, 0.0120, 0.0004, -0.3523, 0.0000, 0.0000, 0.0000, 0.0000, 0.0000, 0.0000, 0.0000
1, 0.0475, 17, 0.0132, 0.0177, -1.0141, -2.0755, 0.4738, 1.8476, 20.0234, 25.4019, -65.0395, -1.3102, 0.4373, 41.2617, 0.9358, 0.0120, 0.0005, -0.3524, 0.0000, 0.0000, 0.0000, 0.0000, 0.0000, 0.0000, 0.0000
1, 0.0500, 18, 0.0162, 0.0297, -1.0152, -1.0641, -0.2701, 1.4411, 20.0234, 25.4019, -65.0395, -1.3112, 0.4360, 41.2645, 0.9358, 0.0120, 0.0005, -0.3524, 0.0000, 0.0000, 0.0000, 0.0000, 0.0000, 0.0000, 0.0000
1, 0.0525, 19, 0.0142, 0.0327, -1.0145, -0.4163, -0.4694, 1.1657, 20.0234, 25.4019, -65.0395, -1.3120, 0.4340, 41.2667, 0.9358, 0.0120, 0.0005, -0.3524, 0.0000, 0.0000, 0.0000, 0.0000, 0.0000, 0.0000, 0.0000
1, 0.0550, 20, 0.0158, 0.0306, -1.0151, -0.2063, 0.0812, 0.9480, 19.0588, 25.4896, -64.4256, -1.3126, 0.4351, 41.2674, 0.9358, 0.0121, 0.0005, -0.3524, 0.0000, 0.0000, 0.0000, 0.0000, 0.0000, 0.0000, 0.0000
1, 0.0575, 21, 0.0161, 0.0305, -1.0156, -0.3518, 0.2176, 0.8758, 19.0588, 25.4896, -64.4256, -1.3131, 0.4362, 41.2679, 0.9358, 0.0121, 0.0005, -0.3524, 0.0000, 0.0000, 0.0000, 0.0000, 0.0000, 0.0000, 0.0000
1, 0.0600, 22, 0.0157, 0.0306, -1.0152, -0.7134, 0.4207, 0.8720, 19.0588, 25.4896, -64.4256, -1.3139, 0.4369, 41.2685, 0.9358, 0.0121, 0.0005, -0.3524, 0.0000, 0.0000, 0.0000, 0.0000, 0.0000, 0.0000, 0.0000
1, 0.0625, 23, 0.0134, 0.0294, -1.0150, -1.5034, 0.4137, 1.1503, 19.0588, 25.4896, -64.4256, -1.3159, 0.4364, 41.2700, 0.9358, 0.0121, 0.0005, -0.3524, 0.0000, 0.0000, 0.0000, 0.0000, 0.0000, 0.0000, 0.0000
1, 0.0650, 24, 0.0138, 0.0288, -1.0146, -1.8580, 0.1342, 1.6433, 19.0588, 25.4896, -64.4256, -1.3186, 0.4353, 41.2728, 0.9358, 0.0121, 0.0005, -0.3525, 0.0000, 0.0000, 0.0000, 0.0000, 0.0000, 0.0000, 0.0000
1, 0.0675, 25, 0.0133, 0.0298, -1.0153, -1.9986, -0.0060, 1.9948, 19.6726, 25.4896, -63.8994, -1.3218, 0.4338, 41.2769, 0.9357, 0.0121, 0.0005, -0.3525, 0.0000, 0.0000, 0.0000, 0.0000, 0.0000, 0.0000, 0.0000
1, 0.0700, 26, 0.0149, 0.0285, -1.0152, -1.4920, -0.2770, 2.0698, 19.6726, 25.4896, -63.8994, -1.3235, 0.4320, 41.2811, 0.9357, 0.0121, 0.0005, -0.3525, 0.0000, 0.0000, 0.0000, 0.0000, 0.0000, 0.0000, 0.0000
1, 0.0725, 27, 0.0151, 0.0239, -1.0169, -0.8460, -0.2710, 1.7913, 19.6726, 25.4896, -63.8994, -1.3225, 0.4303, 41.2845, 0.9357, 0.0121, 0.0006, -0.3525, 0.0000, 0.0000, 0.0000, 0.0000, 0.0000, 0.0000, 0.0000
1, 0.0750, 28, 0.0149, 0.0314, -1.0172, -0.4936, 0.0108, 0.9485, 19.6726, 25.4896, -63.8994, -1.3235, 0.4303, 41.2856, 0.9357, 0.0121, 0.0006, -0.3526, 0.0000, 0.0000, 0.0000, 0.0000, 0.0000, 0.0000, 0.0000
1, 0.0775, 29, 0.0163, 0.0338, -1.0181, -0.4241, 0.1496, 0.7367, 19.6726, 25.4896, -63.8994, -1.3258, 0.4315, 41.2862, 0.9357, 0.0122, 0.0006, -0.3526, 0.0000, 0.0000, 0.0000, 0.0000, 0.0000, 0.0000, 0.0000
1, 0.0800, 30, 0.0154, 0.0315, -1.0153, -0.4968, 0.2856, 0.8045, 19.6726, 25.4896, -63.8994, -1.3267, 0.4323, 41.2870, 0.9357, 0.0122, 0.0006, -0.3526, 0.0000, 0.0000, 0.0000, 0.0000, 0.0000, 0.0000, 0.0000
1, 0.0825, 31, 0.0170, 0.0309, -1.0183, -1.2884, 0.4160, 1.0108, 19.9065, 25.4896, -65.0395, -1.3284, 0.4328, 41.2885, 0.9357, 0.0122, 0.0006, -0.3526, 0.0000, 0.0000, 0.0000, 0.0000, 0.0000, 0.0000, 0.0000
1, 0.0850, 32, 0.0163, 0.0402, -1.0156, -2.0791, 0.5455, 1.3570, 19.9065, 25.4896, -65.0395, -1.3336, 0.4331, 41.2911, 0.9357, 0.0122, 0.0006, -0.3526, 0.0000, 0.0000, 0.0000, 0.0000, 0.0000, 0.0000, 0.0000
1, 0.0875, 33, 0.0172, 0.0309, -1.0166, -2.3590, 0.2637, 2.2698, 19.9065, 25.4896, -65.0395, -1.3378, 0.4328, 41.2960, 0.9357, 0.0123, 0.0006, -0.3526, 0.0000, 0.0000, 0.0000, 0.0000, 0.0000, 0.0000, 0.0000
1, 0.0900, 34, 0.0138, 0.0266, -1.0195, -2.7889, 0.1230, 2.4110, 19.9065, 25.4896, -65.0395, -1.3424, 0.4317, 41.3013, 0.9357, 0.0123, 0.0006, -0.3527, 0.0000, 0.0000, 0.0000, 0.0000, 0.0000, 0.0000, 0.0000
1, 0.0925, 35, 0.0156, 0.0299, -1.0157, -1.7130, -0.1374, 1.4379, 19.9065, 25.4896, -65.0395, -1.3449, 0.4304, 41.3040, 0.9357, 0.0123, 0.0006, -0.3527, 0.0000, 0.0000, 0.0000, 0.0000, 0.0000, 0.0000, 0.0000
1, 0.0950, 36, 0.0156, 0.0299, -1.0157, -1.7130, -0.1374, 1.4379, 18.9711, 25.7235, -65.0102, -1.3473, 0.4290, 41.3061, 0.9356, 0.0123, 0.0006, -0.3527, 0.0000, 0.0000, 0.0000, 0.0000, 0.0000, 0.0000, 0.0000
1, 0.0975, 37, 0.0139, 0.0305, -1.0206, -1.3593, 0.3466, 1.0816, 18.9711, 25.7235, -65.0102, -1.3489, 0.4285, 41.3073, 0.9356, 0.0123, 0.0007, -0.3527, 0.0000, 0.0000, 0.0000, 0.0000, 0.0000, 0.0000, 0.0000
1, 0.1000, 38, 0.0160, 0.0262, -1.0163, -1.7224, 0.6191, 0.9369, 18.9711, 25.7235, -65.0102, -1.3505, 0.4290, 41.3080, 0.9356, 0.0123, 0.0007, -0.3527, 0.0000, 0.0000, 0.0000, 0.0000, 0.0000, 0.0000, 0.0000
1, 0.1025, 39, 0.0147, 0.0287, -1.0175, -1.8630, 0.4789, 1.2885, 18.9711, 25.7235, -65.0102, -1.3530, 0.4289, 41.3098, 0.9356, 0.0124, 0.0007, -0.3528, 0.0000, 0.0000, 0.0000, 0.0000, 0.0000, 0.0000, 0.0000
1, 0.1050, 40, 0.0134, 0.0277, -1.0164, -2.2189, 0.2008, 1.5717, 18.9711, 25.7235, -65.0102, -1.3562, 0.4278, 41.3123, 0.9356, 0.0124, 0.0007, -0.3528, 0.0000, 0.0000, 0.0000, 0.0000, 0.0000, 0.0000, 0.0000
1, 0.1075, 41, 0.0152, 0.0290, -1.0168, -1.7107, -0.0041, 1.9954, 19.4680, 25.2558, -64.4256, -1.3583, 0.4267, 41.3163, 0.9356, 0.0124, 0.0007, -0.3528, 0.0000, 0.0000, 0.0000, 0.0000, 0.0000, 0.0000, 0.0000
1, 0.1100, 42, 0.0149, 0.0234, -1.0134, -1.0612, -0.4089, 1.7230, 19.4680, 25.2558, -64.4256, -1.3576, 0.4246, 41.3196, 0.9356, 0.0124, 0.0007, -0.3528, 0.0000, 0.0000, 0.0000, 0.0000, 0.0000, 0.0000, 0.0000
1, 0.1125, 43, 0.0148, 0.0349, -1.0141, -0.7767, -0.1997, 1.4407, 19.4680, 25.2558, -64.4256, -1.3593, 0.4232, 41.3222, 0.9356, 0.0124, 0.0007, -0.3529, 0.0000, 0.0000, 0.0000, 0.0000, 0.0000, 0.0000, 0.0000
1, 0.1150, 44, 0.0156, 0.0322, -1.0179, 0.0095, -0.0530, 0.7406, 19.4680, 25.2558, -64.4256, -1.3611, 0.4254, 41.3227, 0.9356, 0.0124, 0.0007, -0.3529, 0.0000, 0.0000, 0.0000, 0.0000, 0.0000, 0.0000, 0.0000
1, 0.1175, 45, 0.0151, 0.0297, -1.0136, 0.1503, 0.0192, 0.3202, 19.4680, 25.2558, -64.4256, -1.3630, 0.4304, 41.3221, 0.9356, 0.0125, 0.0007, -0.3529, 0.0000, 0.0000, 0.0000, 0.0000, 0.0000, 0.0000, 0.0000
1, 0.1200, 46, 0.0162, 0.0292, -1.0126, 0.0763, 0.3602, 0.4548, 19.7895, 25.7235, -65.2733, -1.3625, 0.4341, 41.3218, 0.9356, 0.0125, 0.0007, -0.3529, 0.0000, 0.0000, 0.0000, 0.0000, 0.0000, 0.0000, 0.0000
1, 0.1225, 47, 0.0148, 0.0317, -1.0139, -0.2833, 0.4254, 0.5930, 19.7895, 25.7235, -65.2733, -1.3634, 0.4355, 41.3220, 0.9356, 0.0125, 0.0006, -0.3529, 0.0000, 0.0000, 0.0000, 0.0000, 0.0000, 0.0000, 0.0000
1, 0.1250, 48, 0.0141, 0.0322, -1.0111, -1.0733, 0.4184, 0.8713, 19.7895, 25.7235, -65.2733, -1.3652, 0.4355, 41.3230, 0.9356, 0.0125, 0.0006, -0.3529, 0.0000, 0.0000, 0.0000, 0.0000, 0.0000, 0.0000, 0.0000
1, 0.1275, 49, 0.0157, 0.0305, -1.0150, -1.2851, 0.0732, 1.0859, 19.7895, 25.7235, -65.2733, -1.3669, 0.4350, 41.3247, 0.9356, 0.0125, 0.0007, -0.3529, 0.0000, 0.0000, 0.0000, 0.0000, 0.0000, 0.0000, 0.0000
1, 0.1300, 50, 0.0152, 0.0306, -1.0130, -0.9200, -0.3372, 1.3725, 19.7895, 25.7235, -65.2733, -1.3676, 0.4334, 41.3270, 0.9356, 0.0125, 0.0007, -0.3529, 0.0000, 0.0000, 0.0000, 0.0000, 0.0000, 0.0000, 0.0000
1, 0.1325, 51, 0.0149, 0.0329, -1.0128, -0.6357, -0.2636, 0.8824, 19.3511, 25.7527, -63.4317, -1.3691, 0.4325, 41.3277, 0.9356, 0.0125, 0.0007, -0.3529, 0.0000, 0.0000, 0.0000, 0.0000, 0.0000, 0.0000, 0.0000
1, 0.1350, 52, 0.0148, 0.0303, -1.0152, 0.0109, -0.3260, 0.6049, 19.3511, 25.7527, -63.4317, -1.3693, 0.4330, 41.3276, 0.9356, 0.0125, 0.0007, -0.3529, 0.0000, 0.0000, 0.0000, 0.0000, 0.0000, 0.0000, 0.0000
1, 0.1375, 53, 0.0154, 0.0320, -1.0166, 0.2207, -0.0465, -0.0284, 19.3511, 25.7527, -63.4317, -1.3758, 0.4404, 41.3256, 0.9356, 0.0126, 0.0006, -0.3529, 0.0000, 0.0000, 0.0000, 0.0000, 0.0000, 0.0000, 0.0000
1, 0.1400, 54, 0.0154, 0.0320, -1.0166, 0.2207, -0.0465, -0.0284, 19.3511, 25.7527, -63.4317, -1.3821, 0.4476, 41.3236, 0.9356, 0.0127, 0.0006, -0.3529, 0.0000, 0.0000, 0.0000, 0.0000, 0.0000, 0.0000, 0.0000
1, 0.1425, 55, 0.0156, 0.0335, -1.0162, -0.9297, 0.1482, 0.4560, 19.3511, 25.7527, -63.4317, -1.3846, 0.4480, 41.3231, 0.9356, 0.0127, 0.0006, -0.3529, 0.0000, 0.0000, 0.0000, 0.0000, 0.0000, 0.0000, 0.0000
1, 0.1450, 56, 0.0157, 0.0346, -1.0147, -1.5017, 0.0047, 0.8766, 19.2049, 26.0742, -64.8348, -1.3879, 0.4472, 41.3237, 0.9356, 0.0127, 0.0006, -0.3529, 0.0000, 0.0000, 0.0000, 0.0000, 0.0000, 0.0000, 0.0000
1, 0.1475, 57, 0.0137, 0.0334, -1.0183, -1.4244, -0.2720, 1.3705, 19.2049, 26.0742, -64.8348, -1.3902, 0.4450, 41.3256, 0.9356, 0.0127, 0.0006, -0.3529, 0.0000, 0.0000, 0.0000, 0.0000, 0.0000, 0.0000, 0.0000
1, 0.1500, 58, 0.0147, 0.0315, -1.0164, -0.7754, -0.4047, 1.3738, 19.2049, 26.0742, -64.8348, -1.3906, 0.4429, 41.3274, 0.9356, 0.0127, 0.0007, -0.3529, 0.0000, 0.0000, 0.0000, 0.0000, 0.0000, 0.0000, 0.0000
1, 0.1525, 59, 0.0148, 0.0354, -1.0134, -0.0571, -0.5342, 0.9575, 19.2049, 26.0742, -64.8348, -1.3919, 0.4414, 41.3280, 0.9356, 0.0127, 0.0007, -0.3529, 0.0000, 0.0000, 0.0000, 0.0000, 0.0000, 0.0000, 0.0000
1, 0.1550, 60, 0.0148, 0.0345, -1.0156, 0.1549, -0.3250, 0.6051, 19.2049, 26.0742, -64.8348, -1.3934, 0.4413, 41.3277, 0.9356, 0.0127, 0.0007, -0.3529, 0.0000, 0.0000, 0.0000, 0.0000, 0.0000, 0.0000, 0.0000
1, 0.1575, 61, 0.0144, 0.0335, -1.0149, 0.2225, -0.1164, 0.1825, 19.2049, 26.0742, -64.6302, -1.3981, 0.4443, 41.3262, 0.9356, 0.0128, 0.0007, -0.3529, 0.0000, 0.0000, 0.0000, 0.0000, 0.0000, 0.0000, 0.0000
1, 0.1600, 62, 0.0153, 0.0324, -1.0158, -0.0690, 0.1570, -0.0320, 19.2341, 25.7819, -64.6302, -1.4061, 0.4527, 41.3241, 0.9356, 0.0129, 0.0006, -0.3529, 0.0000, 0.0000, 0.0000, 0.0000, 0.0000, 0.0000, 0.0000
1, 0.1625, 63, 0.0139, 0.0301, -1.0160, -0.6436, 0.2199, 0.2457, 19.2341, 25.7819, -64.6302, -1.4069, 0.4532, 41.3230, 0.9356, 0.0129, 0.0006, -0.3529, 0.0000, 0.0000, 0.0000, 0.0000, 0.0000, 0.0000, 0.0000
1, 0.1650, 64, 0.0147, 0.0244, -1.0184, -1.1395, -0.0633, 1.1581, 19.2341, 25.7819, -64.6302, -1.4062, 0.4520, 41.3244, 0.9356, 0.0129, 0.0006, -0.3529, 0.0000, 0.0000, 0.0000, 0.0000, 0.0000, 0.0000, 0.0000
1, 0.1675, 65, 0.0153, 0.0464, -1.0057, -1.1265, -0.6879, 2.4264, 19.2341, 25.7819, -64.6302, -1.4099, 0.4491, 41.3293, 0.9356, 0.0129, 0.0007, -0.3529, 0.0000, 0.0000, 0.0000, 0.0000, 0.0000, 0.0000, 0.0000
1, 0.1700, 66, 0.0141, 0.0369, -1.0138, -1.4198, -0.6162, 1.6554, 19.2341, 25.7819, -64.6302, -1.4128, 0.4461, 41.3322, 0.9356, 0.0129, 0.0007, -0.3529, 0.0000, 0.0000, 0.0000, 0.0000, 0.0000, 0.0000, 0.0000
1, 0.1725, 67, 0.0144, 0.0329, -1.0163, -0.2760, -0.3968, 0.6753, 19.2926, 25.7819, -64.1625, -1.4135, 0.4450, 41.3323, 0.9356, 0.0129, 0.0007, -0.3529, 0.0000, 0.0000, 0.0000, 0.0000, 0.0000, 0.0000, 0.0000
1, 0.1750, 68, 0.0140, 0.0321, -1.0115, 0.5865, -0.3898, 0.4671, 19.2926, 25.7819, -64.1625, -1.4118, 0.4436, 41.3319, 0.9356, 0.0129, 0.0007, -0.3529, 0.0000, 0.0000, 0.0000, 0.0000, 0.0000, 0.0000, 0.0000
1, 0.1775, 69, 0.0126, 0.0317, -1.0140, 0.5830, -0.1825, 0.1842, 19.2926, 25.7819, -64.1625, -1.4110, 0.4429, 41.3307, 0.9356, 0.0129, 0.0007, -0.3529, 0.0000, 0.0000, 0.0000, 0.0000, 0.0000, 0.0000, 0.0000
1, 0.1800, 70, 0.0151, 0.0325, -1.0130, 0.4382, 0.0211, 0.3208, 19.2926, 25.7819, -64.1625, -1.4120, 0.4451, 41.3297, 0.9356, 0.0129, 0.0007, -0.3529, 0.0000, 0.0000, 0.0000, 0.0000, 0.0000, 0.0000, 0.0000
1, 0.1825, 71, 0.0144, 0.0347, -1.0162, 0.0799, 0.0849, 0.6688, 19.2926, 25.7819, -64.1625, -1.4147, 0.4465, 41.3297, 0.9356, 0.0129, 0.0007, -0.3529, 0.0000, 0.0000, 0.0000, 0.0000, 0.0000, 0.0000, 0.0000
1, 0.1850, 72, 0.0144, 0.0347, -1.0162, 0.0799, 0.0849, 0.6688, 19.2634, 25.6358, -63.8702, -1.4174, 0.4478, 41.3297, 0.9356, 0.0130, 0.0007, -0.3529, 0.0000, 0.0000, 0.0000, 0.0000, 0.0000, 0.0000, 0.0000
1, 0.1875, 73, 0.0158, 0.0358, -1.0139, -0.9220, -0.1993, 1.2305, 19.2634, 25.6358, -63.8702, -1.4195, 0.4467, 41.3314, 0.9356, 0.0130, 0.0007, -0.3529, 0.0000, 0.0000, 0.0000, 0.0000, 0.0000, 0.0000, 0.0000
1, 0.1900, 74, 0.0158, 0.0325, -1.0163, -0.3450, -0.3325, 1.2337, 19.2634, 25.6358, -63.8702, -1.4194, 0.4455, 41.3330, 0.9356, 0.0130, 0.0007, -0.3529, 0.0000, 0.0000, 0.0000, 0.0000, 0.0000, 0.0000, 0.0000
1, 0.1925, 75, 0.0153, 0.0335, -1.0172, 0.2295, -0.3273, 1.0249, 19.2634, 25.6358, -63.8702, -1.4185, 0.4445, 41.3340, 0.9356, 0.0130, 0.0007, -0.3530, 0.0000, 0.0000, 0.0000, 0.0000, 0.0000, 0.0000, 0.0000
1, 0.1950, 76, 0.0152, 0.0329, -1.0162, 0.4418, -0.2542, 0.5347, 19.2634, 25.6358, -63.8702, -1.4176, 0.4442, 41.3337, 0.9356, 0.0129, 0.0007, -0.3529, 0.0000, 0.0000, 0.0000, 0.0000, 0.0000, 0.0000, 0.0000
1, 0.1975, 77, 0.0158, 0.0349, -1.0151, 0.5801, 0.1599, 0.1791, 19.0295, 25.7235, -64.5718, -1.4188, 0.4463, 41.3323, 0.9356, 0.0130, 0.0007, -0.3529, 0.0000, 0.0000, 0.0000, 0.0000, 0.0000, 0.0000, 0.0000
1, 0.2000, 78, 0.0139, 0.0359, -1.0158, 0.2890, 0.4328, 0.0345, 19.0295, 25.7235, -64.5718, -1.4223, 0.4483, 41.3305, 0.9356, 0.0130, 0.0007, -0.3529, 0.0000, 0.0000, 0.0000, 0.0000, 0.0000, 0.0000, 0.0000
1, 0.2025, 79, 0.0152, 0.0329, -1.0129, -0.2823, 0.1529, 0.3873, 19.0295, 25.7235, -64.5718, -1.4249, 0.4506, 41.3296, 0.9356, 0.0130, 0.0007, -0.3529, 0.0000, 0.0000, 0.0000, 0.0000, 0.0000, 0.0000, 0.0000
1, 0.2050, 80, 0.0156, 0.0341, -1.0173, -0.8565, 0.2153, 0.7349, 19.0295, 25.7235, -64.5718, -1.4266, 0.4507, 41.3297, 0.9356, 0.0130, 0.0007, -0.3529, 0.0000, 0.0000, 0.0000, 0.0000, 0.0000, 0.0000, 0.0000
1, 0.2075, 81, 0.0146, 0.0337, -1.0162, -0.7802, 0.0075, 1.1578, 19.0295, 25.7235, -64.5718, -1.4279, 0.4498, 41.3310, 0.9356, 0.0130, 0.0007, -0.3529, 0.0000, 0.0000, 0.0000, 0.0000, 0.0000, 0.0000, 0.0000
1, 0.2100, 82, 0.0157, 0.0351, -1.0163, -0.3426, -0.4708, 1.4456, 18.5034, 26.0158, -63.0225, -1.4283, 0.4480, 41.3324, 0.9356, 0.0130, 0.0007, -0.3529, 0.0000, 0.0000, 0.0000, 0.0000, 0.0000, 0.0000, 0.0000
1, 0.2125, 83, 0.0141, 0.0336, -1.0187, 0.3042, -0.6012, 1.0991, 18.5034, 26.0158, -63.0225, -1.4267, 0.4454, 41.3330, 0.9356, 0.0130, 0.0008, -0.3529, 0.0000, 0.0000, 0.0000, 0.0000, 0.0000, 0.0000, 0.0000
1, 0.2150, 84, 0.0173, 0.0330, -1.0178, 0.5133, -0.2533, 0.4649, 18.5034, 26.0158, -63.0225, -1.4255, 0.4460, 41.3317, 0.9356, 0.0130, 0.0007, -0.3529, 0.0000, 0.0000, 0.0000, 0.0000, 0.0000, 0.0000, 0.0000
1, 0.2175, 85, 0.0128, 0.0320, -1.0172, 0.7982, -0.0446, 0.2525, 18.5034, 26.0158, -63.0225, -1.4234, 0.4451, 41.3299, 0.9356, 0.0130, 0.0007, -0.3529, 0.0000, 0.0000, 0.0000, 0.0000, 0.0000, 0.0000, 0.0000
1, 0.2200, 86, 0.0134, 0.0348, -1.0181, 0.5797, 0.1603, 0.1091, 18.5034, 26.0158, -63.0225, -1.4244, 0.4455, 41.3276, 0.9356, 0.0130, 0.0007, -0.3529, 0.0000, 0.0000, 0.0000, 0.0000, 0.0000, 0.0000, 0.0000
1, 0.2225, 87, 0.0153, 0.0347, -1.0177, 0.0773, 0.0877, 0.2491, 19.1757, 25.8112, -64.0748, -1.4304, 0.4501, 41.3263, 0.9356, 0.0131, 0.0007, -0.3529, 0.0000, 0.0000, 0.0000, 0.0000, 0.0000, 0.0000, 0.0000
1, 0.2250, 88, 0.0162, 0.0324, -1.0139, -0.7140, 0.2856, 0.5943, 19.1757, 25.8112, -64.0748, -1.4314, 0.4509, 41.3260, 0.9356, 0.0131, 0.0007, -0.3529, 0.0000, 0.0000, 0.0000, 0.0000, 0.0000, 0.0000, 0.0000
1, 0.2275, 89, 0.0149, 0.0324, -1.0173, -1.1415, 0.0746, 1.0162, 19.1757, 25.8112, -64.0748, -1.4329, 0.4501, 41.3269, 0.9356, 0.0131, 0.0007, -0.3529, 0.0000, 0.0000, 0.0000, 0.0000, 0.0000, 0.0000, 0.0000
1, 0.2300, 90, 0.0149, 0.0324, -1.0173, -1.1415, 0.0746, 1.0162, 19.1757, 25.8112, -64.0748, -1.4343, 0.4493, 41.3278, 0.9356, 0.0131, 0.0007, -0.3529, 0.0000, 0.0000, 0.0000, 0.0000, 0.0000, 0.0000, 0.0000
1, 0.2325, 91, 0.0134, 0.0320, -1.0151, 0.4454, -0.5295, 0.7486, 19.1757, 25.8112, -64.0748, -1.4321, 0.4468, 41.3280, 0.9356, 0.0131, 0.0008, -0.3529, 0.0000, 0.0000, 0.0000, 0.0000, 0.0000, 0.0000, 0.0000
1, 0.2350, 92, 0.0171, 0.0348, -1.0135, 0.7284, -0.2510, 0.3254, 19.1757, 25.5189, -63.8117, -1.4312, 0.4474, 41.3272, 0.9356, 0.0131, 0.0008, -0.3529, 0.0000, 0.0000, 0.0000, 0.0000, 0.0000, 0.0000, 0.0000
1, 0.2375, 93, 0.0142, 0.0343, -1.0141, 0.6499, 0.1627, -0.1705, 19.2049, 25.5189, -63.8117, -1.4314, 0.4482, 41.3252, 0.9356, 0.0131, 0.0007, -0.3529, 0.0000, 0.0000, 0.0000, 0.0000, 0.0000, 0.0000, 0.0000
1, 0.2400, 94, 0.0146, 0.0332, -1.0164, 0.2198, 0.1580, 0.1085, 19.2049, 25.5189, -63.8117, -1.4348, 0.4517, 41.3237, 0.9356, 0.0131, 0.0007, -0.3529, 0.0000, 0.0000, 0.0000, 0.0000, 0.0000, 0.0000, 0.0000
1, 0.2425, 95, 0.0158, 0.0332, -1.0143, -0.2823, 0.1529, 0.3873, 19.2049, 25.5189, -63.8117, -1.4372, 0.4542, 41.3229, 0.9356, 0.0131, 0.0007, -0.3529, 0.0000, 0.0000, 0.0000, 0.0000, 0.0000, 0.0000, 0.0000
1, 0.2450, 96, 0.0153, 0.0331, -1.0149, -0.7815, 0.0089, 0.9480, 19.2049, 25.5189, -63.8117, -1.4384, 0.4537, 41.3237, 0.9356, 0.0131, 0.0007, -0.3529, 0.0000, 0.0000, 0.0000, 0.0000, 0.0000, 0.0000, 0.0000
1, 0.2475, 97, 0.0154, 0.0347, -1.0172, -0.7770, -0.2673, 1.3018, 19.2049, 25.5189, -63.8117, -1.4395, 0.4521, 41.3256, 0.9356, 0.0131, 0.0007, -0.3529, 0.0000, 0.0000, 0.0000, 0.0000, 0.0000, 0.0000, 0.0000
1, 0.2500, 98, 0.0159, 0.0336, -1.0152, -0.3433, -0.5379, 1.2368, 19.0295, 25.4312, -64.0456, -1.4394, 0.4502, 41.3272, 0.9356, 0.0131, 0.0008, -0.3529, 0.0000, 0.0000, 0.0000, 0.0000, 0.0000, 0.0000, 0.0000
1, 0.2525, 99, 0.0166, 0.0345, -1.0164, 0.4463, -0.5304, 0.8885, 19.0295, 25.4312, -64.0456, -1.4378, 0.4487, 41.3279, 0.9356, 0.0131, 0.0008, -0.3529, 0.0000, 0.0000, 0.0000, 0.0000, 0.0000, 0.0000, 0.0000
1, 0.2550, 100, 0.0136, 0.0349, -1.0152, 0.8030, -0.4568, 0.4685, 19.0295, 25.4312, -64.0456, -1.4357, 0.4464, 41.3275, 0.9356, 0.0131, 0.0008, -0.3529, 0.0000, 0.0000, 0.0000, 0.0000, 0.0000, 0.0000, 0.0000
1, 0.2575, 101, 0.0149, 0.0331, -1.0156, 1.0831, -0.0395, -0.2366, 19.0295, 25.4312, -64.0456, -1.4328, 0.4461, 41.3253, 0.9356, 0.0131, 0.0008, -0.3529, 0.0000, 0.0000, 0.0000, 0.0000, 0.0000, 0.0000, 0.0000
1, 0.2600, 102, 0.0134, 0.0347, -1.0167, 0.5785, 0.0937, -0.1696, 19.0295, 25.4312, -64.0456, -1.4338, 0.4465, 41.3232, 0.9356, 0.0131, 0.0008, -0.3529, 0.0000, 0.0000, 0.0000, 0.0000, 0.0000, 0.0000, 0.0000
1, 0.2625, 103, 0.0157, 0.0349, -1.0147, 0.1490, 0.0206, 0.1104, 18.9126, 26.0450, -63.7825, -1.4440, 0.4547, 41.3210, 0.9356, 0.0132, 0.0007, -0.3528, 0.0000, 0.0000, 0.0000, 0.0000, 0.0000, 0.0000, 0.0000
1, 0.2650, 104, 0.0142, 0.0345, -1.0169, -0.2810, -0.0521, 0.3204, 18.9126, 26.0450, -63.7825, -1.4479, 0.4559, 41.3196, 0.9356, 0.0132, 0.0007, -0.3528, 0.0000, 0.0000, 0.0000, 0.0000, 0.0000, 0.0000, 0.0000
1, 0.2675, 105, 0.0152, 0.0331, -1.0152, -0.4929, -0.1257, 0.8806, 18.9126, 26.0450, -63.7825, -1.4487, 0.4554, 41.3197, 0.9356, 0.0132, 0.0007, -0.3528, 0.0000, 0.0000, 0.0000, 0.0000, 0.0000, 0.0000, 0.0000
1, 0.2700, 106, 0.0139, 0.0313, -1.0139, -0.2741, -0.2631, 1.1629, 18.9126, 26.0450, -63.7825, -1.4479, 0.4538, 41.3206, 0.9356, 0.0132, 0.0008, -0.3528, 0.0000, 0.0000, 0.0000, 0.0000, 0.0000, 0.0000, 0.0000
1, 0.2725, 107, 0.0158, 0.0347, -1.0149, 0.3017, -0.4629, 0.8872, 18.9126, 26.0450, -63.7825, -1.4471, 0.4525, 41.3208, 0.9356, 0.0132, 0.0008, -0.3528, 0.0000, 0.0000, 0.0000, 0.0000, 0.0000, 0.0000, 0.0000
1, 0.2750, 108, 0.0156, 0.0309, -1.0147, 1.0874, -0.2477, 0.1862, 19.1172, 25.6358, -64.1333, -1.4430, 0.4518, 41.3196, 0.9356, 0.0132, 0.0008, -0.3528, 0.0000, 0.0000, 0.0000, 0.0000, 0.0000, 0.0000, 0.0000
1, 0.2775, 109, 0.0156, 0.0309, -1.0147, 1.0874, -0.2477, 0.1862, 19.1172, 25.6358, -64.1333, -1.4389, 0.4511, 41.3184, 0.9356, 0.0131, 0.0007, -0.3528, 0.0000, 0.0000, 0.0000, 0.0000, 0.0000, 0.0000, 0.0000
1, 0.2800, 110, 0.0165, 0.0321, -1.0181, 0.5080, 0.0238, -0.0288, 19.1172, 25.6358, -64.1333, -1.4393, 0.4550, 41.3164, 0.9356, 0.0132, 0.0007, -0.3528, 0.0000, 0.0000, 0.0000, 0.0000, 0.0000, 0.0000, 0.0000
1, 0.2825, 111, 0.0149, 0.0321, -1.0145, -0.2116, 0.1547, 0.1776, 19.1172, 25.6358, -64.1333, -1.4424, 0.4586, 41.3149, 0.9356, 0.0132, 0.0007, -0.3528, 0.0000, 0.0000, 0.0000, 0.0000, 0.0000, 0.0000, 0.0000
1, 0.2850, 112, 0.0143, 0.0351, -1.0169, -0.6367, -0.1946, 0.8114, 19.1172, 25.6358, -64.1333, -1.4440, 0.4572, 41.3153, 0.9356, 0.0132, 0.0007, -0.3528, 0.0000, 0.0000, 0.0000, 0.0000, 0.0000, 0.0000, 0.0000
1, 0.2875, 113, 0.0146, 0.0340, -1.0144, -0.7052, -0.4024, 1.0941, 19.2926, 25.4604, -63.4025, -1.4449, 0.4552, 41.3167, 0.9356, 0.0132, 0.0007, -0.3528, 0.0000, 0.0000, 0.0000, 0.0000, 0.0000, 0.0000, 0.0000
1, 0.2900, 114, 0.0139, 0.0356, -1.0168, -0.1252, -0.7424, 1.3102, 19.2926, 25.4604, -63.4025, -1.4447, 0.4521, 41.3187, 0.9356, 0.0132, 0.0008, -0.3528, 0.0000, 0.0000, 0.0000, 0.0000, 0.0000, 0.0000, 0.0000
1, 0.2925, 115, 0.0138, 0.0333, -1.0142, 0.4476, -0.7354, 0.8217, 19.2926, 25.4604, -63.4025, -1.4427, 0.4491, 41.3194, 0.9356, 0.0132, 0.0008, -0.3528, 0.0000, 0.0000, 0.0000, 0.0000, 0.0000, 0.0000, 0.0000
1, 0.2950, 116, 0.0151, 0.0330, -1.0144, 1.0922, -0.6599, 0.4022, 19.2926, 25.4604, -63.4025, -1.4388, 0.4466, 41.3191, 0.9356, 0.0131, 0.0008, -0.3528, 0.0000, 0.0000, 0.0000, 0.0000, 0.0000, 0.0000, 0.0000
1, 0.2975, 117, 0.0138, 0.0354, -1.0161, 0.8007, -0.3865, 0.1877, 19.2926, 25.4604, -63.4025, -1.4377, 0.4449, 41.3181, 0.9356, 0.0131, 0.0008, -0.3528, 0.0000, 0.0000, 0.0000, 0.0000, 0.0000, 0.0000, 0.0000
1, 0.3000, 118, 0.0170, 0.0333, -1.0168, 0.4385, -0.1150, 0.1829, 19.4680, 26.3081, -63.7825, -1.4385, 0.4480, 41.3165, 0.9356, 0.0131, 0.0008, -0.3528, 0.0000, 0.0000, 0.0000, 0.0000, 0.0000, 0.0000, 0.0000
1, 0.3025, 119, 0.0157, 0.0331, -1.0130, 0.0075, -0.1187, 0.3220, 19.4680, 26.3081, -63.7825, -1.4436, 0.4533, 41.3152, 0.9356, 0.0132, 0.0007, -0.3528, 0.0000, 0.0000, 0.0000, 0.0000, 0.0000, 0.0000, 0.0000
1, 0.3050, 120, 0.0152, 0.0357, -1.0153, -0.5657, -0.1252, 0.7406, 19.4680, 26.3081, -63.7825, -1.4458, 0.4529, 41.3152, 0.9356, 0.0132, 0.0008, -0.3528, 0.0000, 0.0000, 0.0000, 0.0000, 0.0000, 0.0000, 0.0000
1, 0.3075, 121, 0.0163, 0.0337, -1.0149, -0.7058, -0.3339, 1.0931, 19.4680, 26.3081, -63.7825, -1.4467, 0.4517, 41.3163, 0.9356, 0.0132, 0.0008, -0.3528, 0.0000, 0.0000, 0.0000, 0.0000, 0.0000, 0.0000, 0.0000
1, 0.3100, 122, 0.0176, 0.0322, -1.0147, -0.3401, -0.8127, 1.3808, 19.4680, 26.3081, -63.7825, -1.4461, 0.4493, 41.3181, 0.9356, 0.0132, 0.0008, -0.3528, 0.0000, 0.0000, 0.0000, 0.0000, 0.0000, 0.0000, 0.0000
1, 0.3125, 123, 0.0147, 0.0357, -1.0161, 0.1618, -0.9431, 0.8941, 19.4972, 25.7819, -64.0748, -1.4455, 0.4461, 41.3190, 0.9356, 0.0132, 0.0008, -0.3528, 0.0000, 0.0000, 0.0000, 0.0000, 0.0000, 0.0000, 0.0000
1, 0.3150, 124, 0.0157, 0.0314, -1.0173, 0.5898, -0.7326, 0.5422, 19.4972, 25.7819, -64.0748, -1.4425, 0.4438, 41.3189, 0.9356, 0.0131, 0.0008, -0.3528, 0.0000, 0.0000, 0.0000, 0.0000, 0.0000, 0.0000, 0.0000
1, 0.3175, 125, 0.0138, 0.0313, -1.0157, 0.9456, -0.4545, 0.2589, 19.4972, 25.7819, -64.0748, -1.4388, 0.4418, 41.3182, 0.9356, 0.0131, 0.0008, -0.3528, 0.0000, 0.0000, 0.0000, 0.0000, 0.0000, 0.0000, 0.0000
1, 0.3200, 126, 0.0163, 0.0335, -1.0146, 0.0789, -0.2533, 0.0444, 19.4972, 25.7819, -64.0748, -1.4447, 0.4483, 41.3165, 0.9356, 0.0132, 0.0008, -0.3528, 0.0000, 0.0000, 0.0000, 0.0000, 0.0000, 0.0000, 0.0000
1, 0.3225, 127, 0.0163, 0.0335, -1.0146, 0.0789, -0.2533, 0.0444, 19.4972, 25.7819, -64.0748, -1.4505, 0.4547, 41.3148, 0.9356, 0.0132, 0.0008, -0.3528, 0.0000, 0.0000, 0.0000, 0.0000, 0.0000, 0.0000, 0.0000
1, 0.3250, 128, 0.0179, 0.0337, -1.0144, -0.7793, -0.1970, 1.0210, 19.4972, 25.7819, -64.0748, -1.4516, 0.4545, 41.3160, 0.9356, 0.0133, 0.0008, -0.3528, 0.0000, 0.0000, 0.0000, 0.0000, 0.0000, 0.0000, 0.0000
1, 0.3275, 129, 0.0159, 0.0322, -1.0151, -0.7757, -0.4722, 1.2349, 19.2049, 25.6065, -64.9518, -1.4520, 0.4525, 41.3177, 0.9356, 0.0132, 0.0008, -0.3528, 0.0000, 0.0000, 0.0000, 0.0000, 0.0000, 0.0000, 0.0000
1, 0.3300, 130, 0.0134, 0.0297, -1.0136, -0.1272, -0.6045, 1.1683, 19.2049, 25.6065, -64.9518, -1.4501, 0.4498, 41.3192, 0.9356, 0.0132, 0.0008, -0.3528, 0.0000, 0.0000, 0.0000, 0.0000, 0.0000, 0.0000, 0.0000
1, 0.3325, 131, 0.0161, 0.0324, -1.0156, 0.3755, -0.6678, 0.8905, 19.2049, 25.6065, -64.9518, -1.4480, 0.4478, 41.3200, 0.9356, 0.0132, 0.0008, -0.3528, 0.0000, 0.0000, 0.0000, 0.0000, 0.0000, 0.0000, 0.0000
1, 0.3350, 132, 0.0149, 0.0342, -1.0140, 0.7294, -0.3199, 0.3964, 19.2049, 25.6065, -64.9518, -1.4463, 0.4469, 41.3194, 0.9356, 0.0132, 0.0008, -0.3528, 0.0000, 0.0000, 0.0000, 0.0000, 0.0000, 0.0000, 0.0000
1, 0.3375, 133, 0.0149, 0.0333, -1.0150, 0.6550, -0.1820, 0.1843, 19.2049, 25.6065, -64.9518, -1.4455, 0.4472, 41.3183, 0.9356, 0.0132, 0.0008, -0.3528, 0.0000, 0.0000, 0.0000, 0.0000, 0.0000, 0.0000, 0.0000
1, 0.3400, 134, 0.0159, 0.0367, -1.0146, 0.4349, 0.1603, -0.0310, 18.5326, 25.6065, -64.1041, -1.4503, 0.4510, 41.3160, 0.9356, 0.0132, 0.0008, -0.3528, 0.0000, 0.0000, 0.0000, 0.0000, 0.0000, 0.0000, 0.0000
1, 0.3425, 135, 0.0126, 0.0329, -1.0150, -0.2840, 0.1547, 0.1075, 18.5326, 25.6065, -64.1041, -1.4540, 0.4522, 41.3141, 0.9356, 0.0133, 0.0008, -0.3528, 0.0000, 0.0000, 0.0000, 0.0000, 0.0000, 0.0000, 0.0000
1, 0.3450, 136, 0.0144, 0.0327, -1.0125, -0.7833, 0.0108, 0.6682, 18.5326, 25.6065, -64.1041, -1.4554, 0.4519, 41.3137, 0.9356, 0.0133, 0.0008, -0.3528, 0.0000, 0.0000, 0.0000, 0.0000, 0.0000, 0.0000, 0.0000
1, 0.3475, 137, 0.0144, 0.0335, -1.0127, -0.8483, -0.4042, 1.2338, 18.5326, 25.6065, -64.1041, -1.4563, 0.4497, 41.3150, 0.9356, 0.0133, 0.0008, -0.3528, 0.0000, 0.0000, 0.0000, 0.0000, 0.0000, 0.0000, 0.0000
1, 0.3500, 138, 0.0151, 0.0326, -1.0140, -0.4160, -0.4019, 1.3045, 18.5326, 25.6065, -64.1041, -1.4561, 0.4479, 41.3164, 0.9356, 0.0133, 0.0008, -0.3528, 0.0000, 0.0000, 0.0000, 0.0000, 0.0000, 0.0000, 0.0000
1, 0.3525, 139, 0.0142, 0.0345, -1.0141, 0.2302, -0.4638, 0.9571, 19.4388, 25.1681, -64.0164, -1.4553, 0.4461, 41.3177, 0.9356, 0.0133, 0.0008, -0.3528, 0.0000, 0.0000, 0.0000, 0.0000, 0.0000, 0.0000, 0.0000
1, 0.3550, 140, 0.0137, 0.0329, -1.0158, 0.8020, -0.3879, 0.3975, 19.4388, 25.1681, -64.0164, -1.4526, 0.4442, 41.3176, 0.9356, 0.0132, 0.0008, -0.3528, 0.0000, 0.0000, 0.0000, 0.0000, 0.0000, 0.0000, 0.0000
1, 0.3575, 141, 0.0170, 0.0329, -1.0171, 0.8725, -0.3180, 0.2568, 19.4388, 25.1681, -64.0164, -1.4498, 0.4441, 41.3171, 0.9356, 0.0132, 0.0008, -0.3528, 0.0000, 0.0000, 0.0000, 0.0000, 0.0000, 0.0000, 0.0000
1, 0.3600, 142, 0.0142, 0.0340, -1.0151, 0.7235, 0.0257, -0.0984, 19.4388, 25.1681, -64.0164, -1.4498, 0.4450, 41.3156, 0.9356, 0.0132, 0.0008, -0.3528, 0.0000, 0.0000, 0.0000, 0.0000, 0.0000, 0.0000, 0.0000
1, 0.3625, 143, 0.0168, 0.0335, -1.0172, 0.2922, 0.1580, 0.1785, 19.4388, 25.1681, -64.0164, -1.4515, 0.4492, 41.3147, 0.9356, 0.0132, 0.0008, -0.3528, 0.0000, 0.0000, 0.0000, 0.0000, 0.0000, 0.0000, 0.0000
1, 0.3650, 144, 0.0164, 0.0345, -1.0160, -0.7088, 0.0765, 1.1569, 19.0880, 25.4312, -63.8117, -1.4527, 0.4492, 41.3161, 0.9356, 0.0132, 0.0008, -0.3528, 0.0000, 0.0000, 0.0000, 0.0000, 0.0000, 0.0000, 0.0000
1, 0.3675, 145, 0.0164, 0.0345, -1.0160, -0.7088, 0.0765, 1.1569, 19.0880, 25.4312, -63.8117, -1.4538, 0.4491, 41.3175, 0.9356, 0.0133, 0.0008, -0.3528, 0.0000, 0.0000, 0.0000, 0.0000, 0.0000, 0.0000, 0.0000
1, 0.3700, 146, 0.0134, 0.0357, -1.0149, 0.0157, -0.5346, 1.0976, 19.0880, 25.4312, -63.8117, -1.4541, 0.4467, 41.3188, 0.9356, 0.0132, 0.0008, -0.3528, 0.0000, 0.0000, 0.0000, 0.0000, 0.0000, 0.0000, 0.0000
1, 0.3725, 147, 0.0152, 0.0332, -1.0135, 0.6625, -0.6650, 0.7511, 19.0880, 25.4312, -63.8117, -1.4514, 0.4444, 41.3192, 0.9356, 0.0132, 0.0008, -0.3528, 0.0000, 0.0000, 0.0000, 0.0000, 0.0000, 0.0000, 0.0000
1, 0.3750, 148, 0.0141, 0.0315, -1.0133, 0.8005, -0.3185, 0.2566, 19.0880, 25.4312, -63.8117, -1.4484, 0.4431, 41.3183, 0.9356, 0.0132, 0.0008, -0.3528, 0.0000, 0.0000, 0.0000, 0.0000, 0.0000, 0.0000, 0.0000
1, 0.3775, 149, 0.0156, 0.0332, -1.0160, 0.7956, -0.0418, -0.1672, 18.1526, 24.7004, -63.7533, -1.4469, 0.4440, 41.3160, 0.9356, 0.0132, 0.0008, -0.3528, 0.0000, 0.0000, 0.0000, 0.0000, 0.0000, 0.0000, 0.0000
1, 0.3800, 150, 0.0146, 0.0348, -1.0159, 0.5080, 0.0238, -0.0288, 18.1526, 24.7004, -63.7533, -1.4499, 0.4464, 41.3139, 0.9356, 0.0132, 0.0008, -0.3528, 0.0000, 0.0000, 0.0000, 0.0000, 0.0000, 0.0000, 0.0000
1, 0.3825, 151, 0.0144, 0.0320, -1.0164, -0.2106, 0.0858, 0.2485, 18.1526, 24.7004, -63.7533, -1.4521, 0.4489, 41.3124, 0.9356, 0.0132, 0.0008, -0.3528, 0.0000, 0.0000, 0.0000, 0.0000, 0.0000, 0.0000, 0.0000
1, 0.3850, 152, 0.0164, 0.0343, -1.0160, -0.6381, -0.1252, 0.6705, 18.1526, 24.7004, -63.7533, -1.4535, 0.4488, 41.3123, 0.9356, 0.0133, 0.0008, -0.3528, 0.0000, 0.0000, 0.0000, 0.0000, 0.0000, 0.0000, 0.0000
1, 0.3875, 153, 0.0156, 0.0315, -1.0134, -0.7046, -0.4708, 1.0952, 18.1526, 24.7004, -63.7533, -1.4534, 0.4467, 41.3134, 0.9356, 0.0132, 0.0008, -0.3528, 0.0000, 0.0000, 0.0000, 0.0000, 0.0000, 0.0000, 0.0000
1, 0.3900, 154, 0.0133, 0.0340, -1.0146, -0.3434, -0.4699, 1.3057, 19.0588, 25.3142, -63.6364, -1.4533, 0.4442, 41.3152, 0.9356, 0.0132, 0.0008, -0.3528, 0.0000, 0.0000, 0.0000, 0.0000, 0.0000, 0.0000, 0.0000
1, 0.3925, 155, 0.0144, 0.0341, -1.0157, 0.2328, -0.6702, 1.1000, 19.0588, 25.3142, -63.6364, -1.4519, 0.4415, 41.3166, 0.9356, 0.0132, 0.0009, -0.3528, 0.0000, 0.0000, 0.0000, 0.0000, 0.0000, 0.0000, 0.0000
1, 0.3950, 156, 0.0138, 0.0331, -1.0155, 0.5875, -0.4587, 0.5381, 19.0588, 25.3142, -63.6364, -1.4497, 0.4394, 41.3164, 0.9356, 0.0132, 0.0009, -0.3528, 0.0000, 0.0000, 0.0000, 0.0000, 0.0000, 0.0000, 0.0000
1, 0.3975, 157, 0.0110, 0.0331, -1.0127, 0.6557, -0.3185, 0.1165, 19.0588, 25.3142, -63.6364, -1.4485, 0.4370, 41.3152, 0.9356, 0.0132, 0.0009, -0.3528, 0.0000, 0.0000, 0.0000, 0.0000, 0.0000, 0.0000, 0.0000
1, 0.4000, 158, 0.0121, 0.0322, -1.0139, 0.2925, 0.0220, 0.0407, 19.0588, 25.3142, -63.6364, -1.4525, 0.4391, 41.3135, 0.9356, 0.0132, 0.0009, -0.3528, 0.0000, 0.0000, 0.0000, 0.0000, 0.0000, 0.0000, 0.0000
1, 0.4025, 159, 0.0144, 0.0330, -1.0133, -0.3549, 0.0173, 0.1094, 19.0588, 25.3142, -63.6364, -1.4572, 0.4427, 41.3120, 0.9356, 0.0133, 0.0009, -0.3528, 0.0000, 0.0000, 0.0000, 0.0000, 0.0000, 0.0000, 0.0000
1, 0.4050, 160, 0.0154, 0.0347, -1.0169, -0.8541, -0.1266, 0.6701, 18.3280, 24.9342, -64.4548, -1.4589, 0.4419, 41.3120, 0.9356, 0.0133, 0.0009, -0.3528, 0.0000, 0.0000, 0.0000, 0.0000, 0.0000, 0.0000, 0.0000
1, 0.4075, 161, 0.0153, 0.0335, -1.0170, -0.9234, -0.1299, 1.0896, 18.3280, 24.9342, -64.4548, -1.4599, 0.4406, 41.3130, 0.9356, 0.0133, 0.0009, -0.3528, 0.0000, 0.0000, 0.0000, 0.0000, 0.0000, 0.0000, 0.0000
1, 0.4100, 162, 0.0144, 0.0316, -1.0168, -0.8473, -0.4732, 1.3047, 18.3280, 24.9342, -64.4548, -1.4600, 0.4381, 41.3147, 0.9356, 0.0133, 0.0009, -0.3528, 0.0000, 0.0000, 0.0000, 0.0000, 0.0000, 0.0000, 0.0000
1, 0.4125, 163, 0.0144, 0.0316, -1.0168, -0.8473, -0.4732, 1.3047, 18.3280, 24.9342, -64.4548, -1.4601, 0.4356, 41.3164, 0.9356, 0.0133, 0.0009, -0.3528, 0.0000, 0.0000, 0.0000, 0.0000, 0.0000, 0.0000, 0.0000
1, 0.4150, 164, 0.0154, 0.0351, -1.0164, 0.5115, -0.1834, 0.2540, 18.3280, 24.9342, -64.4548, -1.4604, 0.4362, 41.3151, 0.9356, 0.0133, 0.0009, -0.3528, 0.0000, 0.0000, 0.0000, 0.0000, 0.0000, 0.0000, 0.0000
1, 0.4175, 165, 0.0163, 0.0336, -1.0139, 0.6525, -0.0437, -0.0275, 19.1757, 25.4312, -64.2210, -1.4609, 0.4393, 41.3134, 0.9356, 0.0133, 0.0009, -0.3528, 0.0000, 0.0000, 0.0000, 0.0000, 0.0000, 0.0000, 0.0000
1, 0.4200, 166, 0.0133, 0.0335, -1.0151, 0.0750, 0.1580, -0.0317, 19.1757, 25.4312, -64.2210, -1.4681, 0.4443, 41.3116, 0.9356, 0.0134, 0.0009, -0.3528, 0.0000, 0.0000, 0.0000, 0.0000, 0.0000, 0.0000, 0.0000
1, 0.4225, 167, 0.0157, 0.0330, -1.0153, -0.4992, 0.2204, 0.3159, 19.1757, 25.4312, -64.2210, -1.4695, 0.4459, 41.3107, 0.9356, 0.0134, 0.0009, -0.3528, 0.0000, 0.0000, 0.0000, 0.0000, 0.0000, 0.0000, 0.0000
1, 0.4250, 168, 0.0144, 0.0338, -1.0139, -0.9246, 0.0071, 1.0876, 19.1757, 25.4312, -64.2210, -1.4709, 0.4450, 41.3121, 0.9356, 0.0134, 0.0009, -0.3528, 0.0000, 0.0000, 0.0000, 0.0000, 0.0000, 0.0000, 0.0000
1, 0.4275, 169, 0.0159, 0.0325, -1.0153, -0.9195, -0.3376, 1.4424, 19.1757, 25.4312, -64.2210, -1.4715, 0.4433, 41.3144, 0.9356, 0.0134, 0.0009, -0.3528, 0.0000, 0.0000, 0.0000, 0.0000, 0.0000, 0.0000, 0.0000
1, 0.4300, 170, 0.0138, 0.0333, -1.0164, -0.5588, -0.5398, 1.3063, 18.7372, 25.1388, -63.7241, -1.4714, 0.4406, 41.3162, 0.9356, 0.0134, 0.0009, -0.3528, 0.0000, 0.0000, 0.0000, 0.0000, 0.0000, 0.0000, 0.0000
1, 0.4325, 171, 0.0148, 0.0330, -1.0169, 0.0875, -0.6697, 0.8899, 18.7372, 25.1388, -63.7241, -1.4702, 0.4384, 41.3168, 0.9356, 0.0134, 0.0009, -0.3528, 0.0000, 0.0000, 0.0000, 0.0000, 0.0000, 0.0000, 0.0000
1, 0.4350, 172, 0.0146, 0.0338, -1.0145, 0.5156, -0.5272, 0.4690, 18.7372, 25.1388, -63.7241, -1.4685, 0.4366, 41.3164, 0.9356, 0.0133, 0.0010, -0.3528, 0.0000, 0.0000, 0.0000, 0.0000, 0.0000, 0.0000, 0.0000
1, 0.4375, 173, 0.0165, 0.0333, -1.0167, 0.5814, -0.0451, 0.1122, 18.7372, 25.1388, -63.7241, -1.4684, 0.4393, 41.3149, 0.9356, 0.0133, 0.0009, -0.3528, 0.0000, 0.0000, 0.0000, 0.0000, 0.0000, 0.0000, 0.0000
1, 0.4400, 174, 0.0137, 0.0320, -1.0185, 0.4347, 0.2283, 0.0379, 18.7372, 25.1388, -63.7241, -1.4676, 0.4406, 41.3131, 0.9356, 0.0133, 0.0009, -0.3528, 0.0000, 0.0000, 0.0000, 0.0000, 0.0000, 0.0000, 0.0000
1, 0.4425, 175, 0.0133, 0.0321, -1.0151, -0.0684, 0.2921, 0.2457, 18.6787, 24.9927, -64.2210, -1.4690, 0.4424, 41.3120, 0.9356, 0.0134, 0.0009, -0.3528, 0.0000, 0.0000, 0.0000, 0.0000, 0.0000, 0.0000, 0.0000
1, 0.4450, 176, 0.0136, 0.0350, -1.0163, -0.9999, 0.1458, 0.7357, 18.6787, 24.9927, -64.2210, -1.4709, 0.4415, 41.3123, 0.9356, 0.0134, 0.0009, -0.3528, 0.0000, 0.0000, 0.0000, 0.0000, 0.0000, 0.0000, 0.0000
1, 0.4475, 177, 0.0159, 0.0331, -1.0158, -1.1395, -0.0633, 1.1581, 18.6787, 24.9927, -64.2210, -1.4722, 0.4406, 41.3137, 0.9356, 0.0134, 0.0009, -0.3528, 0.0000, 0.0000, 0.0000, 0.0000, 0.0000, 0.0000, 0.0000
1, 0.4500, 178, 0.0132, 0.0331, -1.0135, -0.8491, -0.1997, 1.3706, 18.6787, 24.9927, -64.2210, -1.4728, 0.4386, 41.3158, 0.9356, 0.0134, 0.0010, -0.3528, 0.0000, 0.0000, 0.0000, 0.0000, 0.0000, 0.0000, 0.0000
1, 0.4525, 179, 0.0139, 0.0341, -1.0144, -0.2021, -0.2626, 1.1630, 18.6787, 24.9927, -64.2210, -1.4728, 0.4371, 41.3172, 0.9356, 0.0134, 0.0010, -0.3528, 0.0000, 0.0000, 0.0000, 0.0000, 0.0000, 0.0000, 0.0000
1, 0.4550, 180, 0.0122, 0.0336, -1.0190, 0.3724, -0.4610, 0.6775, 18.2987, 25.1973, -64.8056, -1.4710, 0.4343, 41.3170, 0.9356, 0.0133, 0.0010, -0.3528, 0.0000, 0.0000, 0.0000, 0.0000, 0.0000, 0.0000, 0.0000
1, 0.4575, 181, 0.0122, 0.0336, -1.0190, 0.3724, -0.4610, 0.6775, 18.2987, 25.1973, -64.8056, -1.4693, 0.4316, 41.3168, 0.9356, 0.0133, 0.0010, -0.3528, 0.0000, 0.0000, 0.0000, 0.0000, 0.0000, 0.0000, 0.0000
1, 0.4600, 182, 0.0154, 0.0331, -1.0177, 0.0754, 0.1575, 0.0382, 18.2987, 25.1973, -64.8056, -1.4744, 0.4387, 41.3146, 0.9356, 0.0134, 0.0010, -0.3528, 0.0000, 0.0000, 0.0000, 0.0000, 0.0000, 0.0000, 0.0000
1, 0.4625, 183, 0.0137, 0.0327, -1.0155, -0.3541, 0.0844, 0.3182, 18.2987, 25.1973, -64.8056, -1.4761, 0.4396, 41.3133, 0.9356, 0.0134, 0.0010, -0.3528, 0.0000, 0.0000, 0.0000, 0.0000, 0.0000, 0.0000, 0.0000
1, 0.4650, 184, 0.0136, 0.0345, -1.0136, -0.8544, 0.0094, 0.8079, 18.2987, 25.1973, -64.8056, -1.4778, 0.4386, 41.3134, 0.9356, 0.0134, 0.0010, -0.3528, 0.0000, 0.0000, 0.0000, 0.0000, 0.0000, 0.0000, 0.0000
1, 0.4675, 185, 0.0134, 0.0331, -1.0167, -0.9954, -0.1304, 1.0895, 19.1757, 25.7235, -64.5133, -1.4789, 0.4370, 41.3147, 0.9356, 0.0134, 0.0010, -0.3528, 0.0000, 0.0000, 0.0000, 0.0000, 0.0000, 0.0000, 0.0000
1, 0.4700, 186, 0.0137, 0.0314, -1.0141, -0.2738, -0.3991, 1.0250, 19.1757, 25.7235, -64.5133, -1.4780, 0.4351, 41.3157, 0.9356, 0.0134, 0.0010, -0.3528, 0.0000, 0.0000, 0.0000, 0.0000, 0.0000, 0.0000, 0.0000
1, 0.4725, 187, 0.0161, 0.0325, -1.0164, 0.5178, -0.5295, 0.8187, 19.1757, 25.7235, -64.5133, -1.4754, 0.4336, 41.3162, 0.9356, 0.0134, 0.0010, -0.3528, 0.0000, 0.0000, 0.0000, 0.0000, 0.0000, 0.0000, 0.0000
1, 0.4750, 188, 0.0111, 0.0325, -1.0158, 0.8002, -0.1825, 0.3945, 19.1757, 25.7235, -64.5133, -1.4727, 0.4314, 41.3156, 0.9356, 0.0134, 0.0010, -0.3528, 0.0000, 0.0000, 0.0000, 0.0000, 0.0000, 0.0000, 0.0000
1, 0.4775, 189, 0.0138, 0.0313, -1.0142, 0.7244, 0.0248, 0.0415, 19.1757, 25.7235, -64.5133, -1.4708, 0.4325, 41.3140, 0.9356, 0.0133, 0.0010, -0.3528, 0.0000, 0.0000, 0.0000, 0.0000, 0.0000, 0.0000, 0.0000
1, 0.4800, 190, 0.0126, 0.0322, -1.0150, 0.4333, 0.2977, -0.1030, 19.1757, 25.7235, -64.5133, -1.4702, 0.4332, 41.3120, 0.9356, 0.0133, 0.0010, -0.3528, 0.0000, 0.0000, 0.0000, 0.0000, 0.0000, 0.0000, 0.0000
1, 0.4825, 191, 0.0146, 0.0317, -1.0150, 0.0043, 0.1561, 0.1780, 18.9711, 25.3435, -64.3964, -1.4737, 0.4391, 41.3106, 0.9356, 0.0134, 0.0010, -0.3528, 0.0000, 0.0000, 0.0000, 0.0000, 0.0000, 0.0000, 0.0000
1, 0.4850, 192, 0.0131, 0.0352, -1.0164, -0.7107, -0.0572, 0.6693, 18.9711, 25.3435, -64.3964, -1.4757, 0.4380, 41.3107, 0.9356, 0.0134, 0.0010, -0.3528, 0.0000, 0.0000, 0.0000, 0.0000, 0.0000, 0.0000, 0.0000
1, 0.4875, 193, 0.0137, 0.0326, -1.0145, -0.7058, -0.3339, 1.0931, 18.9711, 25.3435, -64.3964, -1.4761, 0.4360, 41.3121, 0.9356, 0.0134, 0.0010, -0.3528, 0.0000, 0.0000, 0.0000, 0.0000, 0.0000, 0.0000, 0.0000
1, 0.4900, 194, 0.0154, 0.0346, -1.0158, -0.4169, -0.4010, 1.1646, 18.9711, 25.3435, -64.3964, -1.4764, 0.4345, 41.3136, 0.9356, 0.0134, 0.0010, -0.3528, 0.0000, 0.0000, 0.0000, 0.0000, 0.0000, 0.0000, 0.0000
1, 0.4925, 195, 0.0132, 0.0331, -1.0146, 0.2324, -0.6697, 1.0301, 18.9711, 25.3435, -64.3964, -1.4747, 0.4316, 41.3147, 0.9356, 0.0134, 0.0010, -0.3528, 0.0000, 0.0000, 0.0000, 0.0000, 0.0000, 0.0000, 0.0000
1, 0.4950, 196, 0.0151, 0.0342, -1.0160, 0.6576, -0.3884, 0.3273, 18.8541, 26.0742, -63.9579, -1.4731, 0.4307, 41.3135, 0.9356, 0.0134, 0.0010, -0.3528, 0.0000, 0.0000, 0.0000, 0.0000, 0.0000, 0.0000, 0.0000
1, 0.4975, 197, 0.0152, 0.0352, -1.0151, 0.7992, -0.3171, 0.0468, 18.8541, 26.0742, -63.9579, -1.4723, 0.4306, 41.3116, 0.9356, 0.0133, 0.0010, -0.3528, 0.0000, 0.0000, 0.0000, 0.0000, 0.0000, 0.0000, 0.0000
1, 0.5000, 198, 0.0159, 0.0314, -1.0123, 0.4349, 0.1603, -0.0310, 18.8541, 26.0742, -63.9579, -1.4722, 0.4351, 41.3091, 0.9356, 0.0134, 0.0010, -0.3527, 0.0000, 0.0000, 0.0000, 0.0000, 0.0000, 0.0000, 0.0000
1, 0.5025, 199, 0.0141, 0.0329, -1.0163, -0.1360, 0.0835, 0.6684, 18.8541, 26.0742, -63.9579, -1.4731, 0.4360, 41.3086, 0.9356, 0.0134, 0.0010, -0.3527, 0.0000, 0.0000, 0.0000, 0.0000, 0.0000, 0.0000, 0.0000
1, 0.5050, 200, 0.0141, 0.0329, -1.0163, -0.1360, 0.0835, 0.6684, 18.8541, 26.0742, -63.9579, -1.4740, 0.4368, 41.3081, 0.9356, 0.0134, 0.0010, -0.3527, 0.0000, 0.0000, 0.0000, 0.0000, 0.0000, 0.0000, 0.0000
1, 0.5075, 201, 0.0146, 0.0333, -1.0157, -0.6338, -0.3334, 1.0933, 18.9126, 25.9281, -64.2502, -1.4745, 0.4352, 41.3090, 0.9356, 0.0134, 0.0010, -0.3527, 0.0000, 0.0000, 0.0000, 0.0000, 0.0000, 0.0000, 0.0000
1, 0.5100, 202, 0.0148, 0.0353, -1.0152, -0.1278, -0.5360, 1.1672, 18.9126, 25.9281, -64.2502, -1.4746, 0.4333, 41.3102, 0.9356, 0.0134, 0.0010, -0.3528, 0.0000, 0.0000, 0.0000, 0.0000, 0.0000, 0.0000, 0.0000
1, 0.5125, 203, 0.0174, 0.0343, -1.0153, 0.7335, -0.5956, 0.6803, 18.9126, 25.9281, -64.2502, -1.4720, 0.4319, 41.3101, 0.9356, 0.0133, 0.0010, -0.3528, 0.0000, 0.0000, 0.0000, 0.0000, 0.0000, 0.0000, 0.0000
1, 0.5150, 204, 0.0143, 0.0343, -1.0168, 0.8712, -0.3166, 0.0469, 18.9126, 25.9281, -64.2502, -1.4702, 0.4310, 41.3083, 0.9356, 0.0133, 0.0010, -0.3527, 0.0000, 0.0000, 0.0000, 0.0000, 0.0000, 0.0000, 0.0000
1, 0.5175, 205, 0.0166, 0.0364, -1.0147, 0.8677, -0.1094, -0.2360, 18.9126, 25.9281, -64.2502, -1.4697, 0.4319, 41.3057, 0.9356, 0.0133, 0.0010, -0.3527, 0.0000, 0.0000, 0.0000, 0.0000, 0.0000, 0.0000, 0.0000
1, 0.5200, 206, 0.0152, 0.0351, -1.0149, 0.5790, 0.0932, -0.0997, 18.9418, 25.9866, -64.5133, -1.4711, 0.4342, 41.3034, 0.9356, 0.0133, 0.0010, -0.3527, 0.0000, 0.0000, 0.0000, 0.0000, 0.0000, 0.0000, 0.0000
1, 0.5225, 207, 0.0146, 0.0347, -1.0184, -0.0660, -0.0498, 0.1809, 18.9418, 25.9866, -64.5133, -1.4779, 0.4390, 41.3016, 0.9356, 0.0134, 0.0010, -0.3527, 0.0000, 0.0000, 0.0000, 0.0000, 0.0000, 0.0000, 0.0000
1, 0.5250, 208, 0.0139, 0.0313, -1.0145, -0.6381, -0.1252, 0.6705, 18.9418, 25.9866, -64.5133, -1.4782, 0.4382, 41.3014, 0.9356, 0.0134, 0.0010, -0.3527, 0.0000, 0.0000, 0.0000, 0.0000, 0.0000, 0.0000, 0.0000
1, 0.5275, 209, 0.0127, 0.0331, -1.0159, -0.6334, -0.3339, 1.1632, 18.9418, 25.9866, -64.5133, -1.4785, 0.4360, 41.3026, 0.9356, 0.0134, 0.0010, -0.3527, 0.0000, 0.0000, 0.0000, 0.0000, 0.0000, 0.0000, 0.0000
1, 0.5300, 210, 0.0147, 0.0354, -1.0164, 0.0169, -0.6716, 1.0996, 18.9418, 25.9866, -64.5133, -1.4783, 0.4337, 41.3036, 0.9356, 0.0134, 0.0010, -0.3527, 0.0000, 0.0000, 0.0000, 0.0000, 0.0000, 0.0000, 0.0000
1, 0.5325, 211, 0.0148, 0.0351, -1.0167, 0.5184, -0.5980, 0.8198, 18.3572, 26.0742, -64.2794, -1.4766, 0.4315, 41.3034, 0.9356, 0.0134, 0.0010, -0.3527, 0.0000, 0.0000, 0.0000, 0.0000, 0.0000, 0.0000, 0.0000
1, 0.5350, 212, 0.0149, 0.0309, -1.0132, 1.1620, -0.4536, 0.3293, 18.3572, 26.0742, -64.2794, -1.4719, 0.4298, 41.3020, 0.9356, 0.0133, 0.0010, -0.3527, 0.0000, 0.0000, 0.0000, 0.0000, 0.0000, 0.0000, 0.0000
1, 0.5375, 213, 0.0144, 0.0345, -1.0123, 1.2321, -0.3832, 0.1186, 18.3572, 26.0742, -64.2794, -1.4686, 0.4283, 41.3001, 0.9357, 0.0133, 0.0010, -0.3527, 0.0000, 0.0000, 0.0000, 0.0000, 0.0000, 0.0000, 0.0000
1, 0.5400, 214, 0.0128, 0.0333, -1.0158, 1.0123, -0.1769, -0.2347, 18.3572, 26.0742, -64.2794, -1.4658, 0.4269, 41.2972, 0.9357, 0.0133, 0.0010, -0.3526, 0.0000, 0.0000, 0.0000, 0.0000, 0.0000, 0.0000, 0.0000
1, 0.5425, 215, 0.0160, 0.0308, -1.0172, 0.3619, 0.2288, -0.1021, 18.3572, 26.0742, -64.2794, -1.4646, 0.4304, 41.2943, 0.9357, 0.0133, 0.0010, -0.3526, 0.0000, 0.0000, 0.0000, 0.0000, 0.0000, 0.0000, 0.0000
1, 0.5450, 216, 0.0164, 0.0311, -1.0169, -0.2087, 0.0159, 0.4594, 19.9357, 25.7819, -64.1625, -1.4653, 0.4338, 41.2941, 0.9357, 0.0133, 0.0010, -0.3526, 0.0000, 0.0000, 0.0000, 0.0000, 0.0000, 0.0000, 0.0000
1, 0.5475, 217, 0.0152, 0.0332, -1.0173, -0.4924, -0.1261, 0.9506, 19.9357, 25.7819, -64.1625, -1.4659, 0.4334, 41.2953, 0.9357, 0.0133, 0.0010, -0.3526, 0.0000, 0.0000, 0.0000, 0.0000, 0.0000, 0.0000, 0.0000
1, 0.5500, 218, 0.0152, 0.0332, -1.0173, -0.4924, -0.1261, 0.9506, 19.9357, 25.7819, -64.1625, -1.4665, 0.4330, 41.2966, 0.9357, 0.0133, 0.0010, -0.3526, 0.0000, 0.0000, 0.0000, 0.0000, 0.0000, 0.0000, 0.0000
1, 0.5525, 219, 0.0153, 0.0349, -1.0160, 0.5886, -0.5956, 0.5401, 19.9357, 25.7819, -64.1625, -1.4649, 0.4313, 41.2969, 0.9357, 0.0133, 0.0010, -0.3526, 0.0000, 0.0000, 0.0000, 0.0000, 0.0000, 0.0000, 0.0000
1, 0.5550, 220, 0.0142, 0.0345, -1.0174, 0.9436, -0.3166, 0.1170, 19.9357, 25.7819, -64.1625, -1.4628, 0.4303, 41.2961, 0.9357, 0.0133, 0.0010, -0.3526, 0.0000, 0.0000, 0.0000, 0.0000, 0.0000, 0.0000, 0.0000
1, 0.5575, 221, 0.0151, 0.0317, -1.0163, 0.7229, 0.0942, -0.0994, 19.9357, 25.7819, -64.1625, -1.4609, 0.4318, 41.2946, 0.9357, 0.0133, 0.0010, -0.3526, 0.0000, 0.0000, 0.0000, 0.0000, 0.0000, 0.0000, 0.0000
1, 0.5600, 222, 0.0127, 0.0329, -1.0167, 0.2185, 0.1594, -0.1014, 19.2926, 25.6358, -64.3964, -1.4634, 0.4337, 41.2927, 0.9357, 0.0133, 0.0010, -0.3526, 0.0000, 0.0000, 0.0000, 0.0000, 0.0000, 0.0000, 0.0000
1, 0.5625, 223, 0.0153, 0.0342, -1.0150, -0.4982, 0.1514, 0.3869, 19.2926, 25.6358, -64.3964, -1.4657, 0.4351, 41.2922, 0.9357, 0.0133, 0.0010, -0.3526, 0.0000, 0.0000, 0.0000, 0.0000, 0.0000, 0.0000, 0.0000
1, 0.5650, 224, 0.0133, 0.0362, -1.0161, -0.9258, -0.0596, 0.8088, 19.2926, 25.6358, -64.3964, -1.4682, 0.4339, 41.2928, 0.9357, 0.0133, 0.0010, -0.3526, 0.0000, 0.0000, 0.0000, 0.0000, 0.0000, 0.0000, 0.0000
1, 0.5675, 225, 0.0143, 0.0326, -1.0157, -0.9197, -0.4732, 1.2347, 19.2926, 25.6358, -64.3964, -1.4690, 0.4317, 41.2946, 0.9357, 0.0133, 0.0010, -0.3526, 0.0000, 0.0000, 0.0000, 0.0000, 0.0000, 0.0000, 0.0000
1, 0.5700, 226, 0.0144, 0.0338, -1.0146, -0.6322, -0.4708, 1.1653, 19.2926, 25.6358, -64.3964, -1.4695, 0.4296, 41.2962, 0.9357, 0.0133, 0.0010, -0.3526, 0.0000, 0.0000, 0.0000, 0.0000, 0.0000, 0.0000, 0.0000
1, 0.5725, 227, 0.0138, 0.0337, -1.0163, 0.2301, -0.5994, 0.7493, 19.1172, 26.0158, -63.6656, -1.4686, 0.4275, 41.2964, 0.9357, 0.0133, 0.0010, -0.3526, 0.0000, 0.0000, 0.0000, 0.0000, 0.0000, 0.0000, 0.0000
1, 0.5750, 228, 0.0139, 0.0338, -1.0155, 0.5856, -0.3888, 0.3272, 19.1172, 26.0158, -63.6656, -1.4673, 0.4263, 41.2954, 0.9357, 0.0133, 0.0010, -0.3526, 0.0000, 0.0000, 0.0000, 0.0000, 0.0000, 0.0000, 0.0000
1, 0.5775, 229, 0.0136, 0.0316, -1.0158, 0.7251, -0.1117, -0.0264, 19.1172, 26.0158, -63.6656, -1.4655, 0.4267, 41.2933, 0.9357, 0.0133, 0.0010, -0.3526, 0.0000, 0.0000, 0.0000, 0.0000, 0.0000, 0.0000, 0.0000
1, 0.5800, 230, 0.0153, 0.0315, -1.0143, 0.5061, 0.0937, -0.2397, 19.1172, 26.0158, -63.6656, -1.4643, 0.4289, 41.2907, 0.9357, 0.0133, 0.0010, -0.3526, 0.0000, 0.0000, 0.0000, 0.0000, 0.0000, 0.0000, 0.0000
1, 0.5825, 231, 0.0144, 0.0338, -1.0134, -0.1401, 0.1556, 0.1078, 19.1172, 26.0158, -63.6656, -1.4705, 0.4341, 41.2889, 0.9357, 0.0133, 0.0010, -0.3526, 0.0000, 0.0000, 0.0000, 0.0000, 0.0000, 0.0000, 0.0000
1, 0.5850, 232, 0.0166, 0.0327, -1.0144, -0.5685, -0.0544, 0.3898, 18.6495, 25.5481, -64.5425, -1.4721, 0.4358, 41.2879, 0.9357, 0.0134, 0.0010, -0.3526, 0.0000, 0.0000, 0.0000, 0.0000, 0.0000, 0.0000, 0.0000
1, 0.5875, 233, 0.0149, 0.0330, -1.0133, -1.0671, -0.2668, 0.9515, 18.6495, 25.5481, -64.5425, -1.4734, 0.4343, 41.2886, 0.9357, 0.0134, 0.0010, -0.3526, 0.0000, 0.0000, 0.0000, 0.0000, 0.0000, 0.0000, 0.0000
1, 0.5900, 234, 0.0138, 0.0329, -1.0132, -0.7023, -0.5412, 1.3760, 18.6495, 25.5481, -64.5425, -1.4737, 0.4317, 41.2904, 0.9357, 0.0134, 0.0010, -0.3526, 0.0000, 0.0000, 0.0000, 0.0000, 0.0000, 0.0000, 0.0000
1, 0.5925, 235, 0.0152, 0.0347, -1.0146, 0.1569, -0.4629, 0.7471, 18.6495, 25.5481, -64.5425, -1.4736, 0.4307, 41.2904, 0.9357, 0.0134, 0.0010, -0.3526, 0.0000, 0.0000, 0.0000, 0.0000, 0.0000, 0.0000, 0.0000
1, 0.5950, 236, 0.0152, 0.0347, -1.0146, 0.1569, -0.4629, 0.7471, 18.6495, 25.5481, -64.5425, -1.4734, 0.4298, 41.2904, 0.9357, 0.0134, 0.0010, -0.3526, 0.0000, 0.0000, 0.0000, 0.0000, 0.0000, 0.0000, 0.0000
1, 0.5975, 237, 0.0144, 0.0332, -1.0130, 0.5065, 0.0932, -0.1698, 19.2049, 25.6942, -64.8348, -1.4738, 0.4317, 41.2883, 0.9357, 0.0134, 0.0010, -0.3526, 0.0000, 0.0000, 0.0000, 0.0000, 0.0000, 0.0000, 0.0000
1, 0.6000, 238, 0.0141, 0.0330, -1.0142, 0.0004, 0.3638, -0.1748, 19.2049, 25.6942, -64.8348, -1.4766, 0.4353, 41.2861, 0.9357, 0.0134, 0.0010, -0.3526, 0.0000, 0.0000, 0.0000, 0.0000, 0.0000, 0.0000, 0.0000
1, 0.6025, 239, 0.0129, 0.0337, -1.0151, -0.6418, 0.1500, 0.4565, 19.2049, 25.6942, -64.8348, -1.4783, 0.4350, 41.2857, 0.9357, 0.0134, 0.0010, -0.3526, 0.0000, 0.0000, 0.0000, 0.0000, 0.0000, 0.0000, 0.0000
1, 0.6050, 240, 0.0144, 0.0335, -1.0178, -0.8519, -0.1290, 1.0198, 19.2049, 25.6942, -64.8348, -1.4793, 0.4339, 41.2869, 0.9357, 0.0134, 0.0010, -0.3526, 0.0000, 0.0000, 0.0000, 0.0000, 0.0000, 0.0000, 0.0000
1, 0.6075, 241, 0.0144, 0.0316, -1.0149, -0.8484, -0.3362, 1.3027, 19.2049, 25.6942, -64.8348, -1.4797, 0.4320, 41.2888, 0.9357, 0.0134, 0.0010, -0.3526, 0.0000, 0.0000, 0.0000, 0.0000, 0.0000, 0.0000, 0.0000
1, 0.6100, 242, 0.0153, 0.0320, -1.0158, -0.4161, -0.5374, 1.0967, 19.0003, 24.9927, -64.9518, -1.4791, 0.4301, 41.2903, 0.9357, 0.0134, 0.0010, -0.3526, 0.0000, 0.0000, 0.0000, 0.0000, 0.0000, 0.0000, 0.0000
1, 0.6125, 243, 0.0137, 0.0327, -1.0174, 0.2296, -0.5989, 0.6793, 19.0003, 24.9927, -64.9518, -1.4776, 0.4279, 41.2908, 0.9357, 0.0134, 0.0011, -0.3526, 0.0000, 0.0000, 0.0000, 0.0000, 0.0000, 0.0000, 0.0000
1, 0.6150, 244, 0.0146, 0.0321, -1.0149, 0.8735, -0.3870, 0.3277, 19.0003, 24.9927, -64.9518, -1.4742, 0.4266, 41.2904, 0.9357, 0.0134, 0.0011, -0.3526, 0.0000, 0.0000, 0.0000, 0.0000, 0.0000, 0.0000, 0.0000
1, 0.6175, 245, 0.0163, 0.0329, -1.0151, 0.7969, -0.0432, 0.0427, 19.0003, 24.9927, -64.9518, -1.4728, 0.4288, 41.2891, 0.9357, 0.0133, 0.0010, -0.3526, 0.0000, 0.0000, 0.0000, 0.0000, 0.0000, 0.0000, 0.0000
1, 0.6200, 246, 0.0161, 0.0332, -1.0152, 0.5071, 0.2283, 0.1080, 19.0003, 24.9927, -64.9518, -1.4726, 0.4316, 41.2880, 0.9357, 0.0134, 0.0010, -0.3526, 0.0000, 0.0000, 0.0000, 0.0000, 0.0000, 0.0000, 0.0000
1, 0.6225, 247, 0.0128, 0.0340, -1.0158, -0.0691, 0.2250, 0.0369, 18.8541, 25.2265, -64.1333, -1.4789, 0.4352, 41.2864, 0.9357, 0.0134, 0.0010, -0.3526, 0.0000, 0.0000, 0.0000, 0.0000, 0.0000, 0.0000, 0.0000
1, 0.6250, 248, 0.0146, 0.0368, -1.0149, -0.4946, -0.1238, 0.6008, 18.8541, 25.2265, -64.1333, -1.4817, 0.4351, 41.2864, 0.9357, 0.0134, 0.0010, -0.3526, 0.0000, 0.0000, 0.0000, 0.0000, 0.0000, 0.0000, 0.0000
1, 0.6275, 249, 0.0138, 0.0322, -1.0150, -0.7042, -0.4713, 1.1651, 18.8541, 25.2265, -64.1333, -1.4819, 0.4328, 41.2880, 0.9357, 0.0134, 0.0010, -0.3526, 0.0000, 0.0000, 0.0000, 0.0000, 0.0000, 0.0000, 0.0000
1, 0.6300, 250, 0.0128, 0.0340, -1.0162, -0.1986, -0.6734, 1.1691, 18.8541, 25.2265, -64.1333, -1.4814, 0.4298, 41.2895, 0.9357, 0.0134, 0.0010, -0.3526, 0.0000, 0.0000, 0.0000, 0.0000, 0.0000, 0.0000, 0.0000
1, 0.6325, 251, 0.0143, 0.0330, -1.0157, 0.4474, -0.6674, 0.8906, 18.8541, 25.2265, -64.1333, -1.4790, 0.4272, 41.2903, 0.9357, 0.0134, 0.0011, -0.3526, 0.0000, 0.0000, 0.0000, 0.0000, 0.0000, 0.0000, 0.0000
1, 0.6350, 252, 0.0151, 0.0349, -1.0158, 0.9487, -0.6613, 0.4719, 18.8541, 25.2265, -64.1333, -1.4760, 0.4249, 41.2901, 0.9357, 0.0134, 0.0011, -0.3526, 0.0000, 0.0000, 0.0000, 0.0000, 0.0000, 0.0000, 0.0000
1, 0.6375, 253, 0.0156, 0.0329, -1.0153, 0.7973, -0.2473, -0.1641, 19.4095, 25.1973, -64.4841, -1.4737, 0.4250, 41.2886, 0.9357, 0.0133, 0.0011, -0.3526, 0.0000, 0.0000, 0.0000, 0.0000, 0.0000, 0.0000, 0.0000
1, 0.6400, 254, 0.0156, 0.0329, -1.0153, 0.7973, -0.2473, -0.1641, 19.4095, 25.1973, -64.4841, -1.4714, 0.4251, 41.2870, 0.9357, 0.0133, 0.0011, -0.3526, 0.0000, 0.0000, 0.0000, 0.0000, 0.0000, 0.0000, 0.0000
1, 0.6425, 255, 0.0153, 0.0330, -1.0142, -0.0659, 0.1538, 0.4576, 19.4095, 25.1973, -64.4841, -1.4734, 0.4284, 41.2868, 0.9357, 0.0133, 0.0010, -0.3526, 0.0000, 0.0000, 0.0000, 0.0000, 0.0000, 0.0000, 0.0000
1, 0.6450, 256, 0.0137, 0.0333, -1.0163, -0.6350, -0.1965, 1.0912, 19.4095, 25.1973, -64.4841, -1.4739, 0.4269, 41.2885, 0.9357, 0.0133, 0.0010, -0.3526, 0.0000, 0.0000, 0.0000, 0.0000, 0.0000, 0.0000, 0.0000
1, 0.6475, 257, 0.0143, 0.0332, -1.0166, -0.3439, -0.4694, 1.2357, 19.4095, 25.1973, -64.4841, -1.4736, 0.4249, 41.2906, 0.9357, 0.0133, 0.0011, -0.3526, 0.0000, 0.0000, 0.0000, 0.0000, 0.0000, 0.0000, 0.0000
1, 0.6500, 258, 0.0142, 0.0343, -1.0141, 0.3760, -0.5327, 1.1682, 18.9126, 25.4604, -64.3379, -1.4719, 0.4227, 41.2920, 0.9357, 0.0133, 0.0011, -0.3526, 0.0000, 0.0000, 0.0000, 0.0000, 0.0000, 0.0000, 0.0000
1, 0.6525, 259, 0.0169, 0.0348, -1.0146, 0.9488, -0.5257, 0.6797, 18.9126, 25.4604, -64.3379, -1.4688, 0.4213, 41.2922, 0.9357, 0.0133, 0.0011, -0.3526, 0.0000, 0.0000, 0.0000, 0.0000, 0.0000, 0.0000, 0.0000
1, 0.6550, 260, 0.0124, 0.0319, -1.0159, 1.0883, -0.2486, 0.3261, 18.9126, 25.4604, -64.3379, -1.4648, 0.4194, 41.2915, 0.9357, 0.0133, 0.0011, -0.3526, 0.0000, 0.0000, 0.0000, 0.0000, 0.0000, 0.0000, 0.0000
1, 0.6575, 261, 0.0151, 0.0325, -1.0150, 0.9390, 0.0276, -0.1679, 18.9126, 25.4604, -64.3379, -1.4623, 0.4202, 41.2894, 0.9357, 0.0132, 0.0011, -0.3526, 0.0000, 0.0000, 0.0000, 0.0000, 0.0000, 0.0000, 0.0000
1, 0.6600, 262, 0.0157, 0.0315, -1.0158, 0.4327, 0.3662, -0.1041, 18.9126, 25.4604, -64.3379, -1.4609, 0.4229, 41.2873, 0.9357, 0.0132, 0.0010, -0.3526, 0.0000, 0.0000, 0.0000, 0.0000, 0.0000, 0.0000, 0.0000
1, 0.6625, 263, 0.0156, 0.0319, -1.0160, 0.0772, 0.1557, 0.3180, 19.2634, 25.6065, -63.5194, -1.4624, 0.4273, 41.2863, 0.9357, 0.0133, 0.0010, -0.3526, 0.0000, 0.0000, 0.0000, 0.0000, 0.0000, 0.0000, 0.0000
1, 0.6650, 264, 0.0147, 0.0335, -1.0196, -0.5672, -0.0558, 0.5997, 19.2634, 25.6065, -63.5194, -1.4636, 0.4272, 41.2863, 0.9357, 0.0133, 0.0010, -0.3526, 0.0000, 0.0000, 0.0000, 0.0000, 0.0000, 0.0000, 0.0000
1, 0.6675, 265, 0.0164, 0.0342, -1.0200, -0.7058, -0.3339, 1.0931, 19.2634, 25.6065, -63.5194, -1.4644, 0.4260, 41.2877, 0.9357, 0.0133, 0.0010, -0.3526, 0.0000, 0.0000, 0.0000, 0.0000, 0.0000, 0.0000, 0.0000
1, 0.6700, 266, 0.0149, 0.0346, -1.0150, -0.2726, -0.5360, 1.0271, 19.2634, 25.6065, -63.5194, -1.4647, 0.4242, 41.2888, 0.9357, 0.0133, 0.0010, -0.3526, 0.0000, 0.0000, 0.0000, 0.0000, 0.0000, 0.0000, 0.0000
1, 0.6725, 267, 0.0122, 0.0335, -1.0155, 0.1569, -0.4629, 0.7471, 19.2634, 25.6065, -63.5194, -1.4641, 0.4220, 41.2892, 0.9357, 0.0133, 0.0011, -0.3526, 0.0000, 0.0000, 0.0000, 0.0000, 0.0000, 0.0000, 0.0000
1, 0.6750, 268, 0.0132, 0.0356, -1.0178, 0.7994, -0.1815, 0.2546, 19.2634, 25.4312, -64.1918, -1.4629, 0.4209, 41.2885, 0.9357, 0.0132, 0.0011, -0.3526, 0.0000, 0.0000, 0.0000, 0.0000, 0.0000, 0.0000, 0.0000
1, 0.6775, 269, 0.0132, 0.0336, -1.0144, 0.8687, 0.0253, 0.1117, 19.2634, 25.4312, -64.1918, -1.4616, 0.4210, 41.2873, 0.9357, 0.0132, 0.0011, -0.3526, 0.0000, 0.0000, 0.0000, 0.0000, 0.0000, 0.0000, 0.0000
1, 0.6800, 270, 0.0134, 0.0357, -1.0175, 0.3630, 0.0918, -0.1001, 19.2634, 25.4312, -64.1918, -1.4653, 0.4229, 41.2856, 0.9357, 0.0133, 0.0011, -0.3526, 0.0000, 0.0000, 0.0000, 0.0000, 0.0000, 0.0000, 0.0000
1, 0.6825, 271, 0.0153, 0.0326, -1.0185, 0.0026, 0.1580, -0.1018, 19.2634, 25.4312, -64.1918, -1.4698, 0.4298, 41.2836, 0.9357, 0.0133, 0.0010, -0.3525, 0.0000, 0.0000, 0.0000, 0.0000, 0.0000, 0.0000, 0.0000
1, 0.6850, 272, 0.0153, 0.0326, -1.0185, 0.0026, 0.1580, -0.1018, 19.2634, 25.4312, -64.1918, -1.4743, 0.4366, 41.2816, 0.9357, 0.0134, 0.0010, -0.3525, 0.0000, 0.0000, 0.0000, 0.0000, 0.0000, 0.0000, 0.0000
1, 0.6875, 273, 0.0147, 0.0313, -1.0141, -0.8473, -0.4732, 1.3047, 18.8541, 25.1388, -64.0456, -1.4745, 0.4344, 41.2836, 0.9357, 0.0134, 0.0010, -0.3525, 0.0000, 0.0000, 0.0000, 0.0000, 0.0000, 0.0000, 0.0000
1, 0.6900, 274, 0.0146, 0.0304, -1.0132, -0.2735, -0.5351, 0.8872, 18.8541, 25.1388, -64.0456, -1.4732, 0.4325, 41.2843, 0.9357, 0.0134, 0.0010, -0.3525, 0.0000, 0.0000, 0.0000, 0.0000, 0.0000, 0.0000, 0.0000
1, 0.6925, 275, 0.0159, 0.0321, -1.0140, 0.2264, -0.3241, 0.5353, 18.8541, 25.1388, -64.0456, -1.4722, 0.4329, 41.2841, 0.9357, 0.0134, 0.0010, -0.3525, 0.0000, 0.0000, 0.0000, 0.0000, 0.0000, 0.0000, 0.0000
1, 0.6950, 276, 0.0157, 0.0342, -1.0150, 0.2957, -0.0493, 0.4614, 18.8541, 25.1388, -64.0456, -1.4733, 0.4349, 41.2836, 0.9357, 0.0134, 0.0010, -0.3525, 0.0000, 0.0000, 0.0000, 0.0000, 0.0000, 0.0000, 0.0000
1, 0.6975, 277, 0.0136, 0.0325, -1.0147, 0.2913, 0.1589, 0.0386, 18.8541, 25.1388, -64.0456, -1.4751, 0.4377, 41.2820, 0.9357, 0.0134, 0.0010, -0.3525, 0.0000, 0.0000, 0.0000, 0.0000, 0.0000, 0.0000, 0.0000
1, 0.7000, 278, 0.0151, 0.0321, -1.0135, 0.0748, 0.2260, 0.0372, 19.3218, 25.6650, -63.9287, -1.4791, 0.4446, 41.2802, 0.9357, 0.0134, 0.0009, -0.3525, 0.0000, 0.0000, 0.0000, 0.0000, 0.0000, 0.0000, 0.0000
1, 0.7025, 279, 0.0142, 0.0340, -1.0132, -0.5714, 0.2879, 0.3847, 19.3218, 25.6650, -63.9287, -1.4807, 0.4452, 41.2796, 0.9357, 0.0135, 0.0009, -0.3525, 0.0000, 0.0000, 0.0000, 0.0000, 0.0000, 0.0000, 0.0000
1, 0.7050, 280, 0.0137, 0.0321, -1.0149, -0.9993, 0.0774, 0.7367, 19.3218, 25.6650, -63.9287, -1.4819, 0.4444, 41.2800, 0.9357, 0.0135, 0.0009, -0.3525, 0.0000, 0.0000, 0.0000, 0.0000, 0.0000, 0.0000, 0.0000
1, 0.7075, 281, 0.0151, 0.0352, -1.0151, -1.3546, -0.0656, 1.2976, 19.3218, 25.6650, -63.9287, -1.4843, 0.4432, 41.2820, 0.9357, 0.0135, 0.0009, -0.3525, 0.0000, 0.0000, 0.0000, 0.0000, 0.0000, 0.0000, 0.0000
1, 0.7100, 282, 0.0151, 0.0335, -1.0145, -0.7062, -0.3334, 1.0232, 19.3218, 25.6650, -63.9287, -1.4849, 0.4417, 41.2831, 0.9357, 0.0135, 0.0010, -0.3525, 0.0000, 0.0000, 0.0000, 0.0000, 0.0000, 0.0000, 0.0000
1, 0.7125, 283, 0.0127, 0.0333, -1.0153, 0.0110, -0.1224, 0.8816, 19.3218, 25.6650, -63.9287, -1.4852, 0.4409, 41.2838, 0.9357, 0.0135, 0.0010, -0.3525, 0.0000, 0.0000, 0.0000, 0.0000, 0.0000, 0.0000, 0.0000
1, 0.7150, 284, 0.0131, 0.0321, -1.0158, 0.5102, 0.0215, 0.3209, 19.9065, 25.3727, -64.4841, -1.4839, 0.4411, 41.2836, 0.9357, 0.0135, 0.0010, -0.3525, 0.0000, 0.0000, 0.0000, 0.0000, 0.0000, 0.0000, 0.0000
1, 0.7175, 285, 0.0138, 0.0308, -1.0122, 0.6515, 0.0252, -0.0985, 19.9065, 25.3727, -64.4841, -1.4820, 0.4423, 41.2824, 0.9357, 0.0135, 0.0009, -0.3525, 0.0000, 0.0000, 0.0000, 0.0000, 0.0000, 0.0000, 0.0000
1, 0.7200, 286, 0.0132, 0.0356, -1.0145, 0.4341, 0.0932, -0.2399, 19.9065, 25.3727, -64.4841, -1.4839, 0.4430, 41.2808, 0.9357, 0.0135, 0.0009, -0.3525, 0.0000, 0.0000, 0.0000, 0.0000, 0.0000, 0.0000, 0.0000
1, 0.7225, 287, 0.0139, 0.0333, -1.0139, 0.0750, 0.1580, -0.0317, 19.9065, 25.3727, -64.4841, -1.4907, 0.4493, 41.2797, 0.9357, 0.0136, 0.0009, -0.3525, 0.0000, 0.0000, 0.0000, 0.0000, 0.0000, 0.0000, 0.0000
1, 0.7250, 288, 0.0157, 0.0351, -1.0128, -0.6429, 0.2870, 0.4545, 19.9065, 25.3727, -64.4841, -1.4927, 0.4504, 41.2799, 0.9357, 0.0136, 0.0009, -0.3525, 0.0000, 0.0000, 0.0000, 0.0000, 0.0000, 0.0000, 0.0000
1, 0.7275, 289, 0.0164, 0.0324, -1.0167, -1.0696, 0.0751, 1.0163, 19.9942, 24.9927, -64.2502, -1.4938, 0.4502, 41.2818, 0.9357, 0.0136, 0.0009, -0.3525, 0.0000, 0.0000, 0.0000, 0.0000, 0.0000, 0.0000, 0.0000
1, 0.7300, 290, 0.0142, 0.0335, -1.0145, -0.1304, -0.3297, 1.0243, 19.9942, 24.9927, -64.2502, -1.4935, 0.4490, 41.2838, 0.9357, 0.0136, 0.0009, -0.3525, 0.0000, 0.0000, 0.0000, 0.0000, 0.0000, 0.0000, 0.0000
1, 0.7325, 291, 0.0142, 0.0335, -1.0145, -0.1304, -0.3297, 1.0243, 19.9942, 24.9927, -64.2502, -1.4933, 0.4477, 41.2858, 0.9357, 0.0136, 0.0009, -0.3526, 0.0000, 0.0000, 0.0000, 0.0000, 0.0000, 0.0000, 0.0000
1, 0.7350, 292, 0.0154, 0.0337, -1.0144, 0.5104, -0.1145, 0.1830, 19.9942, 24.9927, -64.2502, -1.4933, 0.4493, 41.2855, 0.9357, 0.0136, 0.0009, -0.3526, 0.0000, 0.0000, 0.0000, 0.0000, 0.0000, 0.0000, 0.0000
1, 0.7375, 293, 0.0167, 0.0346, -1.0162, 0.5073, 0.1603, 0.0391, 19.9942, 24.9927, -64.2502, -1.4943, 0.4528, 41.2849, 0.9357, 0.0136, 0.0009, -0.3526, 0.0000, 0.0000, 0.0000, 0.0000, 0.0000, 0.0000, 0.0000
1, 0.7400, 294, 0.0133, 0.0335, -1.0146, 0.0754, 0.1575, 0.0382, 20.1695, 26.1327, -64.8348, -1.5006, 0.4576, 41.2837, 0.9357, 0.0137, 0.0009, -0.3525, 0.0000, 0.0000, 0.0000, 0.0000, 0.0000, 0.0000, 0.0000
1, 0.7425, 295, 0.0151, 0.0331, -1.0160, -0.4995, 0.1528, 0.1770, 20.1695, 26.1327, -64.8348, -1.5025, 0.4593, 41.2828, 0.9357, 0.0137, 0.0009, -0.3525, 0.0000, 0.0000, 0.0000, 0.0000, 0.0000, 0.0000, 0.0000
1, 0.7450, 296, 0.0144, 0.0322, -1.0155, -0.9268, 0.0094, 0.7378, 20.1695, 26.1327, -64.8348, -1.5036, 0.4588, 41.2836, 0.9357, 0.0137, 0.0009, -0.3525, 0.0000, 0.0000, 0.0000, 0.0000, 0.0000, 0.0000, 0.0000
1, 0.7475, 297, 0.0144, 0.0332, -1.0150, -0.9226, -0.1308, 1.2295, 20.1695, 26.1327, -64.8348, -1.5047, 0.4575, 41.2856, 0.9357, 0.0137, 0.0009, -0.3526, 0.0000, 0.0000, 0.0000, 0.0000, 0.0000, 0.0000, 0.0000
1, 0.7500, 298, 0.0151, 0.0322, -1.0147, -0.2745, -0.2626, 1.0929, 20.1695, 26.1327, -64.8348, -1.5042, 0.4567, 41.2873, 0.9357, 0.0137, 0.0009, -0.3526, 0.0000, 0.0000, 0.0000, 0.0000, 0.0000, 0.0000, 0.0000
1, 0.7525, 299, 0.0147, 0.0347, -1.0150, 0.5889, -0.5281, 0.6790, 20.3449, 25.3142, -63.6948, -1.5023, 0.4549, 41.2885, 0.9357, 0.0137, 0.0009, -0.3526, 0.0000, 0.0000, 0.0000, 0.0000, 0.0000, 0.0000, 0.0000
1, 0.7550, 300, 0.0144, 0.0316, -1.0168, 0.7995, -0.2496, 0.1856, 20.3449, 25.3142, -63.6948, -1.4993, 0.4542, 41.2884, 0.9357, 0.0136, 0.0009, -0.3526, 0.0000, 0.0000, 0.0000, 0.0000, 0.0000, 0.0000, 0.0000
1, 0.7575, 301, 0.0171, 0.0331, -1.0139, 0.7241, -0.0428, -0.0974, 20.3449, 25.3142, -63.6948, -1.4983, 0.4569, 41.2874, 0.9357, 0.0136, 0.0009, -0.3526, 0.0000, 0.0000, 0.0000, 0.0000, 0.0000, 0.0000, 0.0000
1, 0.7600, 302, 0.0143, 0.0341, -1.0149, 0.5784, 0.1617, -0.1007, 20.3449, 25.3142, -63.6948, -1.4982, 0.4582, 41.2865, 0.9357, 0.0136, 0.0009, -0.3526, 0.0000, 0.0000, 0.0000, 0.0000, 0.0000, 0.0000, 0.0000
1, 0.7625, 303, 0.0127, 0.0325, -1.0134, -0.2863, 0.4286, 0.1034, 20.3449, 25.3142, -63.6948, -1.4995, 0.4593, 41.2861, 0.9357, 0.0137, 0.0009, -0.3526, 0.0000, 0.0000, 0.0000, 0.0000, 0.0000, 0.0000, 0.0000
1, 0.7650, 304, 0.0143, 0.0336, -1.0156, -0.6407, 0.0811, 0.5275, 19.5265, 25.2265, -64.7471, -1.5009, 0.4593, 41.2864, 0.9357, 0.0137, 0.0009, -0.3526, 0.0000, 0.0000, 0.0000, 0.0000, 0.0000, 0.0000, 0.0000
1, 0.7675, 305, 0.0154, 0.0319, -1.0145, -0.9947, -0.2668, 1.0216, 19.5265, 25.2265, -64.7471, -1.5016, 0.4578, 41.2880, 0.9357, 0.0137, 0.0009, -0.3526, 0.0000, 0.0000, 0.0000, 0.0000, 0.0000, 0.0000, 0.0000
1, 0.7700, 306, 0.0144, 0.0319, -1.0162, -0.4160, -0.4019, 1.3045, 19.5265, 25.2265, -64.7471, -1.5010, 0.4559, 41.2903, 0.9357, 0.0137, 0.0009, -0.3526, 0.0000, 0.0000, 0.0000, 0.0000, 0.0000, 0.0000, 0.0000
1, 0.7725, 307, 0.0129, 0.0322, -1.0150, 0.0159, -0.6026, 1.0286, 19.5265, 25.2265, -64.7471, -1.4996, 0.4533, 41.2919, 0.9357, 0.0136, 0.0009, -0.3526, 0.0000, 0.0000, 0.0000, 0.0000, 0.0000, 0.0000, 0.0000
1, 0.7750, 308, 0.0158, 0.0343, -1.0121, 0.9448, -0.4536, 0.1190, 19.5265, 25.2265, -64.7471, -1.4971, 0.4523, 41.2912, 0.9357, 0.0136, 0.0009, -0.3526, 0.0000, 0.0000, 0.0000, 0.0000, 0.0000, 0.0000, 0.0000
1, 0.7775, 309, 0.0158, 0.0343, -1.0121, 0.9448, -0.4536, 0.1190, 19.5265, 25.2265, -64.5133, -1.4946, 0.4514, 41.2904, 0.9357, 0.0136, 0.0009, -0.3526, 0.0000, 0.0000, 0.0000, 0.0000, 0.0000, 0.0000, 0.0000
1, 0.7800, 310, 0.0158, 0.0325, -1.0149, 0.0011, 0.4309, 0.0340, 19.6434, 25.4019, -64.5133, -1.4971, 0.4571, 41.2892, 0.9357, 0.0136, 0.0009, -0.3526, 0.0000, 0.0000, 0.0000, 0.0000, 0.0000, 0.0000, 0.0000
1, 0.7825, 311, 0.0126, 0.0331, -1.0164, -0.8588, 0.2856, 0.4541, 19.6434, 25.4019, -64.5133, -1.4983, 0.4566, 41.2893, 0.9357, 0.0136, 0.0009, -0.3526, 0.0000, 0.0000, 0.0000, 0.0000, 0.0000, 0.0000, 0.0000
1, 0.7850, 312, 0.0143, 0.0299, -1.0150, -1.1404, -0.0624, 1.0182, 19.6434, 25.4019, -64.5133, -1.4989, 0.4554, 41.2908, 0.9357, 0.0136, 0.0009, -0.3526, 0.0000, 0.0000, 0.0000, 0.0000, 0.0000, 0.0000, 0.0000
1, 0.7875, 313, 0.0131, 0.0325, -1.0170, -1.1375, -0.2012, 1.3001, 19.6434, 25.4019, -64.5133, -1.5001, 0.4535, 41.2931, 0.9357, 0.0136, 0.0009, -0.3526, 0.0000, 0.0000, 0.0000, 0.0000, 0.0000, 0.0000, 0.0000
1, 0.7900, 314, 0.0134, 0.0332, -1.0163, -0.4163, -0.4694, 1.1657, 19.6434, 25.4019, -64.5133, -1.4999, 0.4511, 41.2951, 0.9357, 0.0136, 0.0009, -0.3526, 0.0000, 0.0000, 0.0000, 0.0000, 0.0000, 0.0000, 0.0000
1, 0.7925, 315, 0.0132, 0.0356, -1.0151, 0.0133, -0.3963, 0.8857, 20.2280, 25.1681, -64.5425, -1.5006, 0.4495, 41.2968, 0.9357, 0.0136, 0.0009, -0.3526, 0.0000, 0.0000, 0.0000, 0.0000, 0.0000, 0.0000, 0.0000
1, 0.7950, 316, 0.0141, 0.0357, -1.0157, 0.5132, -0.3888, 0.2571, 20.2280, 25.1681, -64.5425, -1.5003, 0.4485, 41.2969, 0.9357, 0.0136, 0.0010, -0.3526, 0.0000, 0.0000, 0.0000, 0.0000, 0.0000, 0.0000, 0.0000
1, 0.7975, 317, 0.0136, 0.0352, -1.0164, 0.3668, -0.2515, 0.0449, 20.2280, 25.1681, -64.5425, -1.5024, 0.4490, 41.2965, 0.9357, 0.0136, 0.0010, -0.3526, 0.0000, 0.0000, 0.0000, 0.0000, 0.0000, 0.0000, 0.0000
1, 0.8000, 318, 0.0137, 0.0319, -1.0150, 0.0771, -0.0479, 0.0413, 20.2280, 25.1681, -64.5425, -1.5082, 0.4562, 41.2958, 0.9357, 0.0137, 0.0009, -0.3526, 0.0000, 0.0000, 0.0000, 0.0000, 0.0000, 0.0000, 0.0000
1, 0.8025, 319, 0.0138, 0.0327, -1.0161, -0.5699, 0.0149, 0.2489, 20.2280, 25.1681, -64.5425, -1.5099, 0.4568, 41.2958, 0.9357, 0.0137, 0.0009, -0.3526, 0.0000, 0.0000, 0.0000, 0.0000, 0.0000, 0.0000, 0.0000
1, 0.8050, 320, 0.0119, 0.0345, -1.0157, -1.2116, -0.1993, 0.9502, 19.9942, 24.9050, -64.3379, -1.5118, 0.4546, 41.2978, 0.9357, 0.0137, 0.0009, -0.3527, 0.0000, 0.0000, 0.0000, 0.0000, 0.0000, 0.0000, 0.0000
1, 0.8075, 321, 0.0153, 0.0320, -1.0157, -1.2799, -0.3395, 1.3718, 19.9942, 24.9050, -64.3379, -1.5131, 0.4528, 41.3007, 0.9356, 0.0137, 0.0010, -0.3527, 0.0000, 0.0000, 0.0000, 0.0000, 0.0000, 0.0000, 0.0000
1, 0.8100, 322, 0.0159, 0.0338, -1.0168, -0.9172, -0.6115, 1.4465, 19.9942, 24.9050, -64.3379, -1.5139, 0.4504, 41.3039, 0.9356, 0.0137, 0.0010, -0.3527, 0.0000, 0.0000, 0.0000, 0.0000, 0.0000, 0.0000, 0.0000
1, 0.8125, 323, 0.0154, 0.0343, -1.0134, -0.0541, -0.7410, 1.1704, 19.9942, 24.9050, -64.3379, -1.5132, 0.4482, 41.3063, 0.9356, 0.0137, 0.0010, -0.3527, 0.0000, 0.0000, 0.0000, 0.0000, 0.0000, 0.0000, 0.0000
1, 0.8150, 324, 0.0113, 0.0352, -1.0158, 0.3731, -0.5975, 0.6096, 19.9942, 24.9050, -64.3379, -1.5121, 0.4450, 41.3074, 0.9356, 0.0137, 0.0010, -0.3527, 0.0000, 0.0000, 0.0000, 0.0000, 0.0000, 0.0000, 0.0000
1, 0.8175, 325, 0.0151, 0.0346, -1.0156, 0.2957, -0.2528, 0.1847, 19.6726, 25.2265, -63.4902, -1.5134, 0.4464, 41.3068, 0.9356, 0.0137, 0.0010, -0.3527, 0.0000, 0.0000, 0.0000, 0.0000, 0.0000, 0.0000, 0.0000
1, 0.8200, 326, 0.0143, 0.0324, -1.0161, 0.2234, -0.1173, 0.3224, 19.6726, 25.2265, -63.4902, -1.5134, 0.4477, 41.3065, 0.9356, 0.0137, 0.0010, -0.3527, 0.0000, 0.0000, 0.0000, 0.0000, 0.0000, 0.0000, 0.0000
1, 0.8225, 327, 0.0143, 0.0324, -1.0161, 0.2234, -0.1173, 0.3224, 19.6726, 25.2265, -63.4902, -1.5134, 0.4491, 41.3062, 0.9356, 0.0137, 0.0010, -0.3527, 0.0000, 0.0000, 0.0000, 0.0000, 0.0000, 0.0000, 0.0000
1, 0.8250, 328, 0.0158, 0.0332, -1.0157, -1.4243, -0.3400, 1.3016, 19.6726, 25.2265, -63.4902, -1.5153, 0.4473, 41.3086, 0.9356, 0.0138, 0.0010, -0.3527, 0.0000, 0.0000, 0.0000, 0.0000, 0.0000, 0.0000, 0.0000
1, 0.8275, 329, 0.0147, 0.0340, -1.0153, -1.2780, -0.4094, 1.5827, 19.6726, 25.2265, -63.4902, -1.5170, 0.4452, 41.3118, 0.9356, 0.0138, 0.0010, -0.3528, 0.0000, 0.0000, 0.0000, 0.0000, 0.0000, 0.0000, 0.0000
1, 0.8300, 330, 0.0164, 0.0322, -1.0153, -0.7750, -0.6087, 1.1670, 20.0818, 25.2850, -64.1625, -1.5171, 0.4431, 41.3141, 0.9356, 0.0138, 0.0011, -0.3528, 0.0000, 0.0000, 0.0000, 0.0000, 0.0000, 0.0000, 0.0000
1, 0.8325, 331, 0.0163, 0.0321, -1.0149, -0.2755, -0.3972, 0.7452, 20.0818, 25.2850, -64.1625, -1.5166, 0.4427, 41.3152, 0.9356, 0.0137, 0.0011, -0.3528, 0.0000, 0.0000, 0.0000, 0.0000, 0.0000, 0.0000, 0.0000
1, 0.8350, 332, 0.0143, 0.0330, -1.0155, 0.1523, -0.1187, 0.4622, 20.0818, 25.2850, -64.1625, -1.5169, 0.4438, 41.3155, 0.9356, 0.0138, 0.0010, -0.3528, 0.0000, 0.0000, 0.0000, 0.0000, 0.0000, 0.0000, 0.0000
1, 0.8375, 333, 0.0131, 0.0340, -1.0144, -0.1386, 0.0862, 0.2487, 20.0818, 25.2850, -64.1625, -1.5208, 0.4460, 41.3153, 0.9356, 0.0138, 0.0010, -0.3528, 0.0000, 0.0000, 0.0000, 0.0000, 0.0000, 0.0000, 0.0000
1, 0.8400, 334, 0.0113, 0.0342, -1.0146, -0.6457, 0.3578, 0.1037, 20.0818, 25.2850, -64.1625, -1.5227, 0.4456, 41.3148, 0.9356, 0.0138, 0.0010, -0.3528, 0.0000, 0.0000, 0.0000, 0.0000, 0.0000, 0.0000, 0.0000
1, 0.8425, 335, 0.0144, 0.0353, -1.0164, -1.2910, 0.4188, 0.5911, 19.0295, 25.2558, -64.8056, -1.5249, 0.4455, 41.3150, 0.9356, 0.0138, 0.0011, -0.3528, 0.0000, 0.0000, 0.0000, 0.0000, 0.0000, 0.0000, 0.0000
1, 0.8450, 336, 0.0120, 0.0352, -1.0135, -2.0063, 0.1379, 0.9436, 19.0295, 25.2558, -64.8056, -1.5286, 0.4441, 41.3162, 0.9356, 0.0138, 0.0011, -0.3528, 0.0000, 0.0000, 0.0000, 0.0000, 0.0000, 0.0000, 0.0000
1, 0.8475, 337, 0.0159, 0.0338, -1.0153, -2.0751, 0.0662, 1.3641, 19.0295, 25.2558, -64.8056, -1.5321, 0.4432, 41.3184, 0.9356, 0.0139, 0.0011, -0.3528, 0.0000, 0.0000, 0.0000, 0.0000, 0.0000, 0.0000, 0.0000
1, 0.8500, 338, 0.0154, 0.0358, -1.0136, -1.4965, -0.2044, 1.4393, 19.0295, 25.2558, -64.8056, -1.5346, 0.4417, 41.3209, 0.9356, 0.0139, 0.0011, -0.3528, 0.0000, 0.0000, 0.0000, 0.0000, 0.0000, 0.0000, 0.0000
1, 0.8525, 339, 0.0166, 0.0374, -1.0141, -0.8493, -0.3353, 1.1628, 19.0295, 25.2558, -64.8056, -1.5363, 0.4404, 41.3225, 0.9356, 0.0139, 0.0011, -0.3529, 0.0000, 0.0000, 0.0000, 0.0000, 0.0000, 0.0000, 0.0000
1, 0.8550, 340, 0.0169, 0.0348, -1.0155, -0.5639, -0.3987, 0.6747, 19.6434, 24.6711, -65.1272, -1.5371, 0.4398, 41.3236, 0.9356, 0.0139, 0.0011, -0.3529, 0.0000, 0.0000, 0.0000, 0.0000, 0.0000, 0.0000, 0.0000
1, 0.8575, 341, 0.0173, 0.0322, -1.0150, -0.4255, 0.0154, 0.3191, 19.6434, 24.6711, -65.1272, -1.5379, 0.4433, 41.3236, 0.9356, 0.0139, 0.0011, -0.3529, 0.0000, 0.0000, 0.0000, 0.0000, 0.0000, 0.0000, 0.0000
1, 0.8600, 342, 0.0163, 0.0345, -1.0162, -0.6468, 0.4947, 0.1017, 19.6434, 24.6711, -65.1272, -1.5393, 0.4454, 41.3232, 0.9356, 0.0139, 0.0011, -0.3529, 0.0000, 0.0000, 0.0000, 0.0000, 0.0000, 0.0000, 0.0000
1, 0.8625, 343, 0.0172, 0.0364, -1.0164, -1.3635, 0.4868, 0.5899, 19.6434, 24.6711, -65.1272, -1.5418, 0.4462, 41.3240, 0.9356, 0.0140, 0.0011, -0.3529, 0.0000, 0.0000, 0.0000, 0.0000, 0.0000, 0.0000, 0.0000
1, 0.8650, 344, 0.0158, 0.0347, -1.0150, -1.8613, 0.2735, 1.2915, 19.6434, 24.6711, -65.1272, -1.5449, 0.4458, 41.3267, 0.9356, 0.0140, 0.0011, -0.3529, 0.0000, 0.0000, 0.0000, 0.0000, 0.0000, 0.0000, 0.0000
1, 0.8675, 345, 0.0158, 0.0347, -1.0150, -1.8613, 0.2735, 1.2915, 19.6434, 24.6711, -65.1272, -1.5480, 0.4455, 41.3294, 0.9356, 0.0140, 0.0011, -0.3529, 0.0000, 0.0000, 0.0000, 0.0000, 0.0000, 0.0000, 0.0000
1, 0.8700, 346, 0.0127, 0.0351, -1.0172, -1.0632, -0.2710, 1.5810, 20.1111, 25.3435, -64.9518, -1.5493, 0.4433, 41.3328, 0.9355, 0.0140, 0.0012, -0.3529, 0.0000, 0.0000, 0.0000, 0.0000, 0.0000, 0.0000, 0.0000
1, 0.8725, 347, 0.0157, 0.0319, -1.0164, -0.2748, -0.3302, 0.9540, 20.1111, 25.3435, -64.9518, -1.5483, 0.4426, 41.3345, 0.9355, 0.0140, 0.0012, -0.3530, 0.0000, 0.0000, 0.0000, 0.0000, 0.0000, 0.0000, 0.0000
1, 0.8750, 348, 0.0151, 0.0352, -1.0161, 0.0088, -0.1201, 0.5318, 20.1111, 25.3435, -64.9518, -1.5506, 0.4447, 41.3350, 0.9355, 0.0140, 0.0011, -0.3530, 0.0000, 0.0000, 0.0000, 0.0000, 0.0000, 0.0000, 0.0000
1, 0.8775, 349, 0.0131, 0.0326, -1.0142, -0.1397, 0.1552, 0.1777, 20.1111, 25.3435, -64.9518, -1.5527, 0.4473, 41.3347, 0.9355, 0.0141, 0.0011, -0.3530, 0.0000, 0.0000, 0.0000, 0.0000, 0.0000, 0.0000, 0.0000
1, 0.8800, 350, 0.0154, 0.0320, -1.0146, -0.5732, 0.3578, 0.1738, 20.1111, 25.3435, -64.9518, -1.5530, 0.4491, 41.3343, 0.9355, 0.0141, 0.0011, -0.3530, 0.0000, 0.0000, 0.0000, 0.0000, 0.0000, 0.0000, 0.0000
1, 0.8825, 351, 0.0147, 0.0317, -1.0170, -1.0042, 0.3540, 0.3129, 20.2572, 25.4604, -63.8702, -1.5537, 0.4495, 41.3344, 0.9355, 0.0141, 0.0011, -0.3530, 0.0000, 0.0000, 0.0000, 0.0000, 0.0000, 0.0000, 0.0000
1, 0.8850, 352, 0.0128, 0.0361, -1.0136, -1.3573, 0.0052, 0.9469, 20.2572, 25.4604, -63.8702, -1.5564, 0.4482, 41.3361, 0.9355, 0.0141, 0.0011, -0.3530, 0.0000, 0.0000, 0.0000, 0.0000, 0.0000, 0.0000, 0.0000
1, 0.8875, 353, 0.0123, 0.0347, -1.0150, -1.2809, -0.2706, 1.3008, 20.2572, 25.4604, -63.8702, -1.5583, 0.4460, 41.3388, 0.9355, 0.0141, 0.0012, -0.3530, 0.0000, 0.0000, 0.0000, 0.0000, 0.0000, 0.0000, 0.0000
1, 0.8900, 354, 0.0127, 0.0335, -1.0158, -0.7043, -0.1997, 1.5107, 20.2572, 25.4604, -63.8702, -1.5585, 0.4441, 41.3420, 0.9355, 0.0141, 0.0012, -0.3530, 0.0000, 0.0000, 0.0000, 0.0000, 0.0000, 0.0000, 0.0000
1, 0.8925, 355, 0.0113, 0.0345, -1.0161, 0.0141, -0.3972, 1.0256, 20.2572, 25.4604, -63.8702, -1.5579, 0.4416, 41.3439, 0.9355, 0.0141, 0.0012, -0.3530, 0.0000, 0.0000, 0.0000, 0.0000, 0.0000, 0.0000, 0.0000
1, 0.8950, 356, 0.0137, 0.0337, -1.0177, 0.5129, -0.2528, 0.3949, 19.9357, 25.2558, -64.7471, -1.5560, 0.4407, 41.3441, 0.9355, 0.0141, 0.0012, -0.3530, 0.0000, 0.0000, 0.0000, 0.0000, 0.0000, 0.0000, 0.0000
1, 0.8975, 357, 0.0116, 0.0342, -1.0148, 0.6514, 0.0933, -0.0296, 19.9357, 25.2558, -64.7471, -1.5555, 0.4404, 41.3433, 0.9355, 0.0141, 0.0012, -0.3530, 0.0000, 0.0000, 0.0000, 0.0000, 0.0000, 0.0000, 0.0000
1, 0.9000, 358, 0.0123, 0.0337, -1.0161, 0.4350, 0.0923, -0.1000, 19.9357, 25.2558, -64.7471, -1.5557, 0.4409, 41.3422, 0.9355, 0.0141, 0.0012, -0.3530, 0.0000, 0.0000, 0.0000, 0.0000, 0.0000, 0.0000, 0.0000
1, 0.9025, 359, 0.0138, 0.0337, -1.0170, 0.0756, 0.2931, 0.2460, 19.9357, 25.2558, -64.7471, -1.5568, 0.4432, 41.3419, 0.9355, 0.0141, 0.0012, -0.3530, 0.0000, 0.0000, 0.0000, 0.0000, 0.0000, 0.0000, 0.0000
1, 0.9050, 360, 0.0121, 0.0357, -1.0144, -0.3535, 0.2195, 0.5960, 19.9357, 25.2558, -64.7471, -1.5583, 0.4428, 41.3427, 0.9355, 0.0141, 0.0012, -0.3530, 0.0000, 0.0000, 0.0000, 0.0000, 0.0000, 0.0000, 0.0000
1, 0.9075, 361, 0.0137, 0.0343, -1.0140, -0.7789, -0.1974, 1.0909, 20.3449, 26.1327, -63.8410, -1.5592, 0.4414, 41.3444, 0.9355, 0.0141, 0.0012, -0.3530, 0.0000, 0.0000, 0.0000, 0.0000, 0.0000, 0.0000, 0.0000
1, 0.9100, 362, 0.0142, 0.0365, -1.0156, -0.5587, -0.6078, 1.2374, 20.3449, 26.1327, -63.8410, -1.5599, 0.4390, 41.3467, 0.9355, 0.0141, 0.0012, -0.3531, 0.0000, 0.0000, 0.0000, 0.0000, 0.0000, 0.0000, 0.0000
1, 0.9125, 363, 0.0139, 0.0345, -1.0151, 0.6571, -0.3879, 0.2574, 20.3449, 26.1327, -63.8410, -1.5581, 0.4379, 41.3463, 0.9355, 0.0141, 0.0012, -0.3530, 0.0000, 0.0000, 0.0000, 0.0000, 0.0000, 0.0000, 0.0000
1, 0.9150, 364, 0.0139, 0.0345, -1.0151, 0.6571, -0.3879, 0.2574, 20.3449, 26.1327, -63.8410, -1.5563, 0.4368, 41.3460, 0.9355, 0.0141, 0.0012, -0.3530, 0.0000, 0.0000, 0.0000, 0.0000, 0.0000, 0.0000, 0.0000
1, 0.9175, 365, 0.0157, 0.0313, -1.0146, 0.7220, 0.0951, -0.2393, 20.3449, 26.1327, -63.8410, -1.5531, 0.4384, 41.3442, 0.9355, 0.0140, 0.0012, -0.3530, 0.0000, 0.0000, 0.0000, 0.0000, 0.0000, 0.0000, 0.0000
1, 0.9200, 366, 0.0127, 0.0340, -1.0152, 0.1474, 0.1580, 0.0384, 19.8188, 25.2265, -63.5779, -1.5571, 0.4416, 41.3433, 0.9355, 0.0141, 0.0012, -0.3530, 0.0000, 0.0000, 0.0000, 0.0000, 0.0000, 0.0000, 0.0000
1, 0.9225, 367, 0.0148, 0.0338, -1.0170, -0.4264, 0.2199, 0.4559, 19.8188, 25.2265, -63.5779, -1.5578, 0.4426, 41.3435, 0.9355, 0.0141, 0.0012, -0.3530, 0.0000, 0.0000, 0.0000, 0.0000, 0.0000, 0.0000, 0.0000
1, 0.9250, 368, 0.0127, 0.0345, -1.0166, -0.7104, 0.0103, 0.8082, 19.8188, 25.2265, -63.5779, -1.5589, 0.4415, 41.3447, 0.9355, 0.0141, 0.0012, -0.3530, 0.0000, 0.0000, 0.0000, 0.0000, 0.0000, 0.0000, 0.0000
1, 0.9275, 369, 0.0147, 0.0352, -1.0155, -0.9210, -0.2682, 1.3015, 19.8188, 25.2265, -63.5779, -1.5599, 0.4399, 41.3472, 0.9355, 0.0141, 0.0012, -0.3531, 0.0000, 0.0000, 0.0000, 0.0000, 0.0000, 0.0000, 0.0000
1, 0.9300, 370, 0.0136, 0.0363, -1.0152, 0.0157, -0.5346, 1.0976, 19.8188, 25.2265, -63.5779, -1.5597, 0.4378, 41.3492, 0.9355, 0.0141, 0.0012, -0.3531, 0.0000, 0.0000, 0.0000, 0.0000, 0.0000, 0.0000, 0.0000
1, 0.9325, 371, 0.0136, 0.0314, -1.0159, 0.4453, -0.4615, 0.8176, 19.2049, 24.9050, -64.3087, -1.5565, 0.4357, 41.3502, 0.9355, 0.0140, 0.0012, -0.3531, 0.0000, 0.0000, 0.0000, 0.0000, 0.0000, 0.0000, 0.0000
1, 0.9350, 372, 0.0156, 0.0324, -1.0152, 0.8731, -0.3865, 0.2578, 19.2049, 24.9050, -64.3087, -1.5527, 0.4347, 41.3497, 0.9355, 0.0140, 0.0012, -0.3531, 0.0000, 0.0000, 0.0000, 0.0000, 0.0000, 0.0000, 0.0000
1, 0.9375, 373, 0.0141, 0.0375, -1.0155, 0.6547, -0.2496, 0.0455, 19.2049, 24.9050, -64.3087, -1.5533, 0.4345, 41.3487, 0.9355, 0.0140, 0.0012, -0.3531, 0.0000, 0.0000, 0.0000, 0.0000, 0.0000, 0.0000, 0.0000
1, 0.9400, 374, 0.0141, 0.0351, -1.0151, 0.2905, 0.1598, -0.1013, 19.2049, 24.9050, -64.3087, -1.5556, 0.4372, 41.3472, 0.9355, 0.0140, 0.0012, -0.3531, 0.0000, 0.0000, 0.0000, 0.0000, 0.0000, 0.0000, 0.0000
1, 0.9425, 375, 0.0146, 0.0354, -1.0175, -0.1411, 0.2246, 0.0368, 19.2049, 24.9050, -64.3087, -1.5602, 0.4414, 41.3461, 0.9355, 0.0141, 0.0012, -0.3530, 0.0000, 0.0000, 0.0000, 0.0000, 0.0000, 0.0000, 0.0000
1, 0.9450, 376, 0.0143, 0.0349, -1.0150, -0.8558, 0.0788, 0.6670, 20.0818, 25.1973, -64.3964, -1.5617, 0.4411, 41.3471, 0.9355, 0.0141, 0.0012, -0.3531, 0.0000, 0.0000, 0.0000, 0.0000, 0.0000, 0.0000, 0.0000
1, 0.9475, 377, 0.0148, 0.0338, -1.0158, -0.9196, -0.5412, 1.1657, 20.0818, 25.1973, -64.3964, -1.5624, 0.4387, 41.3494, 0.9355, 0.0141, 0.0012, -0.3531, 0.0000, 0.0000, 0.0000, 0.0000, 0.0000, 0.0000, 0.0000
1, 0.9500, 378, 0.0157, 0.0352, -1.0157, -0.3416, -0.7433, 1.2398, 20.0818, 25.1973, -64.3964, -1.5620, 0.4363, 41.3520, 0.9355, 0.0141, 0.0013, -0.3531, 0.0000, 0.0000, 0.0000, 0.0000, 0.0000, 0.0000, 0.0000
1, 0.9525, 379, 0.0158, 0.0351, -1.0157, 0.3763, -0.6688, 1.0303, 20.0818, 25.1973, -64.3964, -1.5600, 0.4342, 41.3540, 0.9355, 0.0141, 0.0013, -0.3531, 0.0000, 0.0000, 0.0000, 0.0000, 0.0000, 0.0000, 0.0000
1, 0.9550, 380, 0.0139, 0.0338, -1.0163, 0.8783, -0.5956, 0.8204, 20.0818, 25.1973, -64.3964, -1.5563, 0.4316, 41.3555, 0.9355, 0.0140, 0.0013, -0.3531, 0.0000, 0.0000, 0.0000, 0.0000, 0.0000, 0.0000, 0.0000
1, 0.9575, 381, 0.0136, 0.0357, -1.0150, 1.0147, -0.3152, -0.0228, 20.0818, 25.1973, -64.3964, -1.5539, 0.4304, 41.3548, 0.9355, 0.0140, 0.0013, -0.3531, 0.0000, 0.0000, 0.0000, 0.0000, 0.0000, 0.0000, 0.0000
1, 0.9600, 382, 0.0136, 0.0357, -1.0150, 1.0147, -0.3152, -0.0228, 20.4619, 25.2558, -64.6010, -1.5516, 0.4292, 41.3543, 0.9355, 0.0140, 0.0013, -0.3531, 0.0000, 0.0000, 0.0000, 0.0000, 0.0000, 0.0000, 0.0000
1, 0.9625, 383, 0.0137, 0.0346, -1.0159, 0.1512, 0.0183, 0.4601, 20.4619, 25.2558, -64.6010, -1.5533, 0.4309, 41.3550, 0.9355, 0.0140, 0.0013, -0.3531, 0.0000, 0.0000, 0.0000, 0.0000, 0.0000, 0.0000, 0.0000
1, 0.9650, 384, 0.0154, 0.0352, -1.0178, -0.2770, -0.1243, 0.8810, 20.4619, 25.2558, -64.6010, -1.5539, 0.4310, 41.3567, 0.9355, 0.0140, 0.0013, -0.3531, 0.0000, 0.0000, 0.0000, 0.0000, 0.0000, 0.0000, 0.0000
1, 0.9675, 385, 0.0147, 0.0327, -1.0160, -0.2726, -0.3325, 1.3038, 20.4619, 25.2558, -64.6010, -1.5529, 0.4297, 41.3596, 0.9355, 0.0140, 0.0013, -0.3532, 0.0000, 0.0000, 0.0000, 0.0000, 0.0000, 0.0000, 0.0000
1, 0.9700, 386, 0.0144, 0.0340, -1.0150, 0.3756, -0.5323, 1.0982, 20.4619, 25.2558, -64.6010, -1.5508, 0.4277, 41.3620, 0.9355, 0.0140, 0.0013, -0.3532, 0.0000, 0.0000, 0.0000, 0.0000, 0.0000, 0.0000, 0.0000
1, 0.9725, 387, 0.0166, 0.0337, -1.0140, 0.9501, -0.7307, 0.6128, 19.6141, 25.0804, -63.6071, -1.5470, 0.4256, 41.3627, 0.9354, 0.0139, 0.0013, -0.3532, 0.0000, 0.0000, 0.0000, 0.0000, 0.0000, 0.0000, 0.0000
1, 0.9750, 388, 0.0137, 0.0364, -1.0184, 1.4490, -0.4508, 0.1900, 19.6141, 25.0804, -63.6071, -1.5427, 0.4234, 41.3623, 0.9355, 0.0139, 0.0013, -0.3532, 0.0000, 0.0000, 0.0000, 0.0000, 0.0000, 0.0000, 0.0000
1, 0.9775, 389, 0.0147, 0.0342, -1.0161, 1.3730, -0.1755, -0.0941, 19.6141, 25.0804, -63.6071, -1.5385, 0.4226, 41.3612, 0.9355, 0.0139, 0.0013, -0.3532, 0.0000, 0.0000, 0.0000, 0.0000, 0.0000, 0.0000, 0.0000
1, 0.9800, 390, 0.0151, 0.0351, -1.0162, 0.7942, 0.0276, -0.3081, 19.6141, 25.0804, -63.6071, -1.5369, 0.4233, 41.3594, 0.9355, 0.0139, 0.0013, -0.3532, 0.0000, 0.0000, 0.0000, 0.0000, 0.0000, 0.0000, 0.0000
1, 0.9825, 391, 0.0123, 0.0345, -1.0145, 0.4354, 0.0918, -0.0300, 19.6141, 25.0804, -63.6071, -1.5387, 0.4246, 41.3583, 0.9355, 0.0139, 0.0013, -0.3531, 0.0000, 0.0000, 0.0000, 0.0000, 0.0000, 0.0000, 0.0000
1, 0.9850, 392, 0.0146, 0.0343, -1.0155, -0.2074, -0.1890, 0.3925, 19.8480, 25.2558, -63.8994, -1.5404, 0.4257, 41.3584, 0.9355, 0.0139, 0.0013, -0.3531, 0.0000, 0.0000, 0.0000, 0.0000, 0.0000, 0.0000, 0.0000
1, 0.9875, 393, 0.0136, 0.0325, -1.0129, -0.0590, -0.4643, 0.7467, 19.8480, 25.2558, -63.8994, -1.5395, 0.4243, 41.3594, 0.9355, 0.0139, 0.0013, -0.3532, 0.0000, 0.0000, 0.0000, 0.0000, 0.0000, 0.0000, 0.0000
1, 0.9900, 394, 0.0138, 0.0343, -1.0184, 0.3035, -0.4647, 1.1670, 19.8480, 25.2558, -63.8994, -1.5376, 0.4222, 41.3615, 0.9355, 0.0139, 0.0013, -0.3532, 0.0000, 0.0000, 0.0000, 0.0000, 0.0000, 0.0000, 0.0000
1, 0.9925, 395, 0.0131, 0.0327, -1.0147, 0.9504, -0.6632, 0.7517, 19.8480, 25.2558, -63.8994, -1.5335, 0.4193, 41.3626, 0.9355, 0.0138, 0.0013, -0.3532, 0.0000, 0.0000, 0.0000, 0.0000, 0.0000, 0.0000, 0.0000
1, 0.9950, 396, 0.0146, 0.0347, -1.0158, 1.3064, -0.4531, 0.3995, 19.8480, 25.2558, -63.8994, -1.5292, 0.4173, 41.3628, 0.9355, 0.0138, 0.0013, -0.3532, 0.0000, 0.0000, 0.0000, 0.0000, 0.0000, 0.0000, 0.0000
1, 0.9975, 397, 0.0139, 0.0354, -1.0147, 1.3726, -0.1750, -0.1640, 18.6787, 25.4312, -64.7471, -1.5253, 0.4161, 41.3607, 0.9355, 0.0137, 0.0013, -0.3532, 0.0000, 0.0000, 0.0000, 0.0000, 0.0000, 0.0000, 0.0000
1, 1.0000, 398, 0.0122, 0.0362, -1.0168, 1.2961, 0.1007, -0.5180, 18.6787, 25.4312, -64.7471, -1.5217, 0.4148, 41.3578, 0.9355, 0.0137, 0.0013, -0.3531, 0.0000, 0.0000, 0.0000, 0.0000, 0.0000, 0.0000, 0.0000
1, 1.0025, 399, 0.0134, 0.0348, -1.0152, 0.2197, 0.2260, 0.1774, 18.6787, 25.4312, -64.7471, -1.5239, 0.4169, 41.3563, 0.9355, 0.0137, 0.0013, -0.3531, 0.0000, 0.0000, 0.0000, 0.0000, 0.0000, 0.0000, 0.0000
1, 1.0050, 400, 0.0134, 0.0348, -1.0152, 0.2197, 0.2260, 0.1774, 18.6787, 25.4312, -64.7471, -1.5261, 0.4191, 41.3548, 0.9355, 0.0138, 0.0013, -0.3531, 0.0000, 0.0000, 0.0000, 0.0000, 0.0000, 0.0000, 0.0000
1, 1.0075, 401, 0.0146, 0.0320, -1.0149, 0.0855, -0.3283, 1.0247, 18.6787, 25.4312, -64.7471, -1.5244, 0.4182, 41.3556, 0.9355, 0.0137, 0.0013, -0.3531, 0.0000, 0.0000, 0.0000, 0.0000, 0.0000, 0.0000, 0.0000
1, 1.0100, 402, 0.0129, 0.0324, -1.0145, 0.5183, -0.5299, 0.8887, 19.4680, 25.4896, -64.9810, -1.5215, 0.4157, 41.3567, 0.9355, 0.0137, 0.0013, -0.3531, 0.0000, 0.0000, 0.0000, 0.0000, 0.0000, 0.0000, 0.0000
1, 1.0125, 403, 0.0143, 0.0311, -1.0185, 1.2338, -0.3851, 0.3984, 19.4680, 25.4896, -64.9810, -1.5163, 0.4139, 41.3566, 0.9355, 0.0137, 0.0013, -0.3531, 0.0000, 0.0000, 0.0000, 0.0000, 0.0000, 0.0000, 0.0000
1, 1.0150, 404, 0.0118, 0.0342, -1.0156, 1.6635, -0.3799, 0.0494, 19.4680, 25.4896, -64.9810, -1.5111, 0.4113, 41.3556, 0.9355, 0.0136, 0.0013, -0.3531, 0.0000, 0.0000, 0.0000, 0.0000, 0.0000, 0.0000, 0.0000
1, 1.0175, 405, 0.0129, 0.0338, -1.0190, 1.3717, -0.1741, -0.3039, 19.4680, 25.4896, -64.9810, -1.5066, 0.4097, 41.3537, 0.9355, 0.0136, 0.0013, -0.3531, 0.0000, 0.0000, 0.0000, 0.0000, 0.0000, 0.0000, 0.0000
1, 1.0200, 406, 0.0132, 0.0342, -1.0146, 0.7946, 0.0271, -0.2381, 19.4680, 25.4896, -64.9810, -1.5053, 0.4098, 41.3518, 0.9355, 0.0136, 0.0013, -0.3531, 0.0000, 0.0000, 0.0000, 0.0000, 0.0000, 0.0000, 0.0000
1, 1.0225, 407, 0.0136, 0.0319, -1.0141, 0.2211, 0.1566, 0.3183, 19.3218, 25.5189, -65.0979, -1.5051, 0.4119, 41.3511, 0.9355, 0.0136, 0.0013, -0.3531, 0.0000, 0.0000, 0.0000, 0.0000, 0.0000, 0.0000, 0.0000
1, 1.0250, 408, 0.0144, 0.0338, -1.0162, -0.1347, -0.1215, 0.6015, 19.3218, 25.5189, -65.0979, -1.5064, 0.4129, 41.3512, 0.9355, 0.0136, 0.0013, -0.3531, 0.0000, 0.0000, 0.0000, 0.0000, 0.0000, 0.0000, 0.0000
1, 1.0275, 409, 0.0157, 0.0325, -1.0147, -0.4193, -0.2626, 0.9527, 19.3218, 25.5189, -65.0979, -1.5063, 0.4125, 41.3523, 0.9355, 0.0136, 0.0013, -0.3531, 0.0000, 0.0000, 0.0000, 0.0000, 0.0000, 0.0000, 0.0000
1, 1.0300, 410, 0.0136, 0.0361, -1.0157, -0.0578, -0.3977, 1.0254, 19.3218, 25.5189, -65.0979, -1.5068, 0.4111, 41.3536, 0.9355, 0.0136, 0.0013, -0.3531, 0.0000, 0.0000, 0.0000, 0.0000, 0.0000, 0.0000, 0.0000
1, 1.0325, 411, 0.0168, 0.0305, -1.0147, 0.6599, -0.4587, 0.6081, 19.3218, 25.5189, -65.0979, -1.5032, 0.4104, 41.3538, 0.9355, 0.0135, 0.0013, -0.3531, 0.0000, 0.0000, 0.0000, 0.0000, 0.0000, 0.0000, 0.0000
1, 1.0350, 412, 0.0143, 0.0330, -1.0166, 0.9435, -0.2486, 0.1859, 19.3218, 25.5189, -65.0979, -1.5001, 0.4098, 41.3529, 0.9355, 0.0135, 0.0013, -0.3531, 0.0000, 0.0000, 0.0000, 0.0000, 0.0000, 0.0000, 0.0000
1, 1.0375, 413, 0.0133, 0.0325, -1.0134, 0.8690, -0.1108, -0.0261, 19.5849, 26.4250, -64.0748, -1.4981, 0.4100, 41.3511, 0.9355, 0.0135, 0.0013, -0.3531, 0.0000, 0.0000, 0.0000, 0.0000, 0.0000, 0.0000, 0.0000
1, 1.0400, 414, 0.0132, 0.0336, -1.0139, 0.5774, 0.2307, -0.1717, 19.5849, 26.4250, -64.0748, -1.4975, 0.4110, 41.3489, 0.9355, 0.0135, 0.0013, -0.3531, 0.0000, 0.0000, 0.0000, 0.0000, 0.0000, 0.0000, 0.0000
1, 1.0425, 415, 0.0129, 0.0330, -1.0151, 0.0039, 0.1566, 0.1080, 19.5849, 26.4250, -64.0748, -1.5034, 0.4164, 41.3472, 0.9355, 0.0136, 0.0012, -0.3531, 0.0000, 0.0000, 0.0000, 0.0000, 0.0000, 0.0000, 0.0000
1, 1.0450, 416, 0.0142, 0.0324, -1.0151, -0.4964, 0.0816, 0.5977, 19.5849, 26.4250, -64.0748, -1.5041, 0.4171, 41.3469, 0.9355, 0.0136, 0.0012, -0.3531, 0.0000, 0.0000, 0.0000, 0.0000, 0.0000, 0.0000, 0.0000
1, 1.0475, 417, 0.0142, 0.0342, -1.0151, -0.8509, -0.1979, 1.0908, 19.5849, 26.4250, -64.0748, -1.5054, 0.4159, 41.3481, 0.9355, 0.0136, 0.0012, -0.3531, 0.0000, 0.0000, 0.0000, 0.0000, 0.0000, 0.0000, 0.0000
1, 1.0500, 418, 0.0142, 0.0342, -1.0151, -0.8509, -0.1979, 1.0908, 18.7080, 25.4019, -64.1918, -1.5065, 0.4145, 41.3493, 0.9355, 0.0136, 0.0013, -0.3531, 0.0000, 0.0000, 0.0000, 0.0000, 0.0000, 0.0000, 0.0000
1, 1.0525, 419, 0.0127, 0.0331, -1.0166, 0.3738, -0.7340, 0.5417, 18.7080, 25.4019, -64.1918, -1.5045, 0.4116, 41.3490, 0.9355, 0.0136, 0.0013, -0.3531, 0.0000, 0.0000, 0.0000, 0.0000, 0.0000, 0.0000, 0.0000
1, 1.0550, 420, 0.0144, 0.0324, -1.0134, 0.8702, -0.2477, -0.0241, 18.7080, 25.4019, -64.1918, -1.5018, 0.4116, 41.3472, 0.9355, 0.0135, 0.0013, -0.3531, 0.0000, 0.0000, 0.0000, 0.0000, 0.0000, 0.0000, 0.0000
1, 1.0575, 421, 0.0127, 0.0341, -1.0172, 0.7213, 0.2316, -0.1714, 18.7080, 25.4019, -64.1918, -1.5002, 0.4116, 41.3450, 0.9355, 0.0135, 0.0013, -0.3530, 0.0000, 0.0000, 0.0000, 0.0000, 0.0000, 0.0000, 0.0000
1, 1.0600, 422, 0.0143, 0.0327, -1.0146, 0.2208, 0.0891, 0.1794, 18.7080, 25.4019, -64.1918, -1.5021, 0.4155, 41.3435, 0.9355, 0.0135, 0.0012, -0.3530, 0.0000, 0.0000, 0.0000, 0.0000, 0.0000, 0.0000, 0.0000
1, 1.0625, 423, 0.0122, 0.0353, -1.0136, -0.2803, 0.0150, 0.5292, 19.2926, 25.2558, -64.2210, -1.5052, 0.4156, 41.3435, 0.9355, 0.0136, 0.0012, -0.3530, 0.0000, 0.0000, 0.0000, 0.0000, 0.0000, 0.0000, 0.0000
1, 1.0650, 424, 0.0138, 0.0342, -1.0168, -0.5654, -0.0577, 0.8794, 19.2926, 25.2558, -64.2210, -1.5061, 0.4150, 41.3445, 0.9355, 0.0136, 0.0013, -0.3530, 0.0000, 0.0000, 0.0000, 0.0000, 0.0000, 0.0000, 0.0000
1, 1.0675, 425, 0.0153, 0.0346, -1.0155, -0.7045, -0.3353, 1.3030, 19.2926, 25.2558, -64.2210, -1.5068, 0.4135, 41.3466, 0.9355, 0.0136, 0.0013, -0.3531, 0.0000, 0.0000, 0.0000, 0.0000, 0.0000, 0.0000, 0.0000
1, 1.0700, 426, 0.0147, 0.0330, -1.0146, -0.1988, -0.6054, 1.2381, 19.2926, 25.2558, -64.2210, -1.5059, 0.4114, 41.3486, 0.9355, 0.0136, 0.0013, -0.3531, 0.0000, 0.0000, 0.0000, 0.0000, 0.0000, 0.0000, 0.0000
1, 1.0725, 427, 0.0132, 0.0320, -1.0158, 0.6634, -0.6660, 0.8910, 19.2926, 25.2558, -64.2210, -1.5025, 0.4086, 41.3497, 0.9355, 0.0135, 0.0013, -0.3531, 0.0000, 0.0000, 0.0000, 0.0000, 0.0000, 0.0000, 0.0000
1, 1.0750, 428, 0.0128, 0.0325, -1.0152, 0.9476, -0.5924, 0.4009, 19.6141, 25.6065, -64.9810, -1.4987, 0.4060, 41.3496, 0.9355, 0.0135, 0.0013, -0.3531, 0.0000, 0.0000, 0.0000, 0.0000, 0.0000, 0.0000, 0.0000
1, 1.0775, 429, 0.0138, 0.0330, -1.0152, 1.1585, -0.2463, 0.0464, 19.6141, 25.6065, -64.9810, -1.4951, 0.4050, 41.3486, 0.9355, 0.0135, 0.0013, -0.3531, 0.0000, 0.0000, 0.0000, 0.0000, 0.0000, 0.0000, 0.0000
1, 1.0800, 430, 0.0128, 0.0324, -1.0135, 0.7245, -0.0432, -0.0274, 19.6141, 25.6065, -64.9810, -1.4939, 0.4057, 41.3472, 0.9355, 0.0134, 0.0013, -0.3531, 0.0000, 0.0000, 0.0000, 0.0000, 0.0000, 0.0000, 0.0000
1, 1.0825, 431, 0.0162, 0.0335, -1.0140, 0.1498, 0.0196, 0.2503, 19.6141, 25.6065, -64.9810, -1.4978, 0.4128, 41.3463, 0.9355, 0.0135, 0.0012, -0.3530, 0.0000, 0.0000, 0.0000, 0.0000, 0.0000, 0.0000, 0.0000
1, 1.0850, 432, 0.0129, 0.0330, -1.0162, -0.3510, 0.0131, 0.7389, 19.6141, 25.6065, -64.9810, -1.4985, 0.4126, 41.3469, 0.9355, 0.0135, 0.0012, -0.3531, 0.0000, 0.0000, 0.0000, 0.0000, 0.0000, 0.0000, 0.0000
1, 1.0875, 433, 0.0144, 0.0345, -1.0163, -0.5630, -0.1960, 1.0913, 19.3218, 25.5773, -64.9810, -1.4992, 0.4116, 41.3484, 0.9355, 0.0135, 0.0013, -0.3531, 0.0000, 0.0000, 0.0000, 0.0000, 0.0000, 0.0000, 0.0000
1, 1.0900, 434, 0.0126, 0.0337, -1.0127, -0.3446, -0.3329, 1.3036, 19.3218, 25.5773, -64.9810, -1.4991, 0.4096, 41.3504, 0.9355, 0.0135, 0.0013, -0.3531, 0.0000, 0.0000, 0.0000, 0.0000, 0.0000, 0.0000, 0.0000
1, 1.0925, 435, 0.0151, 0.0347, -1.0146, 0.0851, -0.3278, 0.9547, 19.3218, 25.5773, -64.9810, -1.4991, 0.4093, 41.3514, 0.9355, 0.0135, 0.0013, -0.3531, 0.0000, 0.0000, 0.0000, 0.0000, 0.0000, 0.0000, 0.0000
1, 1.0950, 436, 0.0151, 0.0347, -1.0146, 0.0851, -0.3278, 0.9547, 19.3218, 25.5773, -64.9810, -1.4991, 0.4089, 41.3524, 0.9355, 0.0135, 0.0013, -0.3531, 0.0000, 0.0000, 0.0000, 0.0000, 0.0000, 0.0000, 0.0000
1, 1.0975, 437, 0.0139, 0.0331, -1.0157, 0.5061, 0.0937, -0.2397, 19.3218, 25.5773, -64.9810, -1.4985, 0.4103, 41.3504, 0.9355, 0.0135, 0.0013, -0.3531, 0.0000, 0.0000, 0.0000, 0.0000, 0.0000, 0.0000, 0.0000
1, 1.1000, 438, 0.0129, 0.0317, -1.0151, 0.0743, 0.2945, 0.0362, 19.5849, 25.2558, -64.3964, -1.5005, 0.4141, 41.3492, 0.9355, 0.0135, 0.0012, -0.3531, 0.0000, 0.0000, 0.0000, 0.0000, 0.0000, 0.0000, 0.0000
1, 1.1025, 439, 0.0152, 0.0327, -1.0156, -0.4992, 0.2204, 0.3159, 19.5849, 25.2558, -64.3964, -1.5016, 0.4159, 41.3489, 0.9355, 0.0135, 0.0012, -0.3531, 0.0000, 0.0000, 0.0000, 0.0000, 0.0000, 0.0000, 0.0000
1, 1.1050, 440, 0.0121, 0.0345, -1.0157, -0.9993, 0.0774, 0.7367, 19.5849, 25.2558, -64.3964, -1.5035, 0.4148, 41.3498, 0.9355, 0.0136, 0.0012, -0.3531, 0.0000, 0.0000, 0.0000, 0.0000, 0.0000, 0.0000, 0.0000
1, 1.1075, 441, 0.0161, 0.0321, -1.0130, -0.8515, -0.1294, 1.0898, 19.5849, 25.2558, -64.3964, -1.5041, 0.4144, 41.3515, 0.9355, 0.0136, 0.0013, -0.3531, 0.0000, 0.0000, 0.0000, 0.0000, 0.0000, 0.0000, 0.0000
1, 1.1100, 442, 0.0141, 0.0322, -1.0147, -0.2022, -0.3982, 0.9552, 19.5849, 25.2558, -64.3964, -1.5034, 0.4131, 41.3529, 0.9355, 0.0135, 0.0013, -0.3531, 0.0000, 0.0000, 0.0000, 0.0000, 0.0000, 0.0000, 0.0000
1, 1.1125, 443, 0.0158, 0.0348, -1.0158, 0.5139, -0.3218, 0.4659, 19.5849, 25.2558, -64.3964, -1.5024, 0.4131, 41.3531, 0.9355, 0.0135, 0.0013, -0.3531, 0.0000, 0.0000, 0.0000, 0.0000, 0.0000, 0.0000, 0.0000
1, 1.1150, 444, 0.0161, 0.0346, -1.0150, 0.8698, -0.0437, 0.1827, 20.1403, 25.1388, -66.1502, -1.5009, 0.4145, 41.3529, 0.9355, 0.0135, 0.0012, -0.3531, 0.0000, 0.0000, 0.0000, 0.0000, 0.0000, 0.0000, 0.0000
1, 1.1175, 445, 0.0139, 0.0341, -1.0155, 0.9393, 0.0951, -0.0291, 20.1403, 25.1388, -66.1502, -1.4991, 0.4151, 41.3522, 0.9355, 0.0135, 0.0012, -0.3531, 0.0000, 0.0000, 0.0000, 0.0000, 0.0000, 0.0000, 0.0000
1, 1.1200, 446, 0.0127, 0.0338, -1.0141, 0.3603, 0.3662, -0.1741, 20.1403, 25.1388, -66.1502, -1.4993, 0.4162, 41.3512, 0.9355, 0.0135, 0.0012, -0.3531, 0.0000, 0.0000, 0.0000, 0.0000, 0.0000, 0.0000, 0.0000
1, 1.1225, 447, 0.0138, 0.0313, -1.0155, -0.3557, 0.2218, 0.2462, 20.1403, 25.1388, -66.1502, -1.4997, 0.4180, 41.3512, 0.9355, 0.0135, 0.0012, -0.3531, 0.0000, 0.0000, 0.0000, 0.0000, 0.0000, 0.0000, 0.0000
1, 1.1250, 448, 0.0136, 0.0336, -1.0136, -0.6396, 0.1477, 0.8063, 20.1403, 25.1388, -66.1502, -1.5007, 0.4178, 41.3526, 0.9355, 0.0135, 0.0012, -0.3531, 0.0000, 0.0000, 0.0000, 0.0000, 0.0000, 0.0000, 0.0000
1, 1.1275, 449, 0.0117, 0.0340, -1.0158, -0.8499, -0.2668, 1.1618, 19.6141, 25.0512, -65.1856, -1.5018, 0.4157, 41.3548, 0.9355, 0.0135, 0.0012, -0.3531, 0.0000, 0.0000, 0.0000, 0.0000, 0.0000, 0.0000, 0.0000
1, 1.1300, 450, 0.0153, 0.0352, -1.0166, -0.4169, -0.4010, 1.1646, 19.6141, 25.0512, -65.1856, -1.5023, 0.4144, 41.3569, 0.9355, 0.0135, 0.0012, -0.3531, 0.0000, 0.0000, 0.0000, 0.0000, 0.0000, 0.0000, 0.0000
1, 1.1325, 451, 0.0152, 0.0352, -1.0157, 0.0854, -0.4638, 0.8169, 19.6141, 25.0512, -65.1856, -1.5024, 0.4137, 41.3581, 0.9355, 0.0135, 0.0013, -0.3531, 0.0000, 0.0000, 0.0000, 0.0000, 0.0000, 0.0000, 0.0000
1, 1.1350, 452, 0.0143, 0.0342, -1.0155, 0.8018, -0.3199, 0.4665, 19.6141, 25.0512, -65.1856, -1.5000, 0.4127, 41.3585, 0.9355, 0.0135, 0.0013, -0.3531, 0.0000, 0.0000, 0.0000, 0.0000, 0.0000, 0.0000, 0.0000
1, 1.1375, 453, 0.0144, 0.0340, -1.0162, 0.9425, -0.1797, 0.1149, 19.6141, 25.0512, -65.1856, -1.4977, 0.4125, 41.3579, 0.9355, 0.0135, 0.0012, -0.3531, 0.0000, 0.0000, 0.0000, 0.0000, 0.0000, 0.0000, 0.0000
1, 1.1400, 454, 0.0153, 0.0333, -1.0160, 0.2915, 0.2945, 0.2464, 19.9649, 25.1973, -64.3379, -1.4980, 0.4154, 41.3577, 0.9355, 0.0135, 0.0012, -0.3531, 0.0000, 0.0000, 0.0000, 0.0000, 0.0000, 0.0000, 0.0000
1, 1.1425, 455, 0.0153, 0.0333, -1.0160, 0.2915, 0.2945, 0.2464, 19.9649, 25.1973, -64.3379, -1.4982, 0.4183, 41.3574, 0.9355, 0.0135, 0.0012, -0.3531, 0.0000, 0.0000, 0.0000, 0.0000, 0.0000, 0.0000, 0.0000
1, 1.1450, 456, 0.0179, 0.0341, -1.0175, -0.7799, -0.1285, 1.0200, 19.9649, 25.1973, -64.3379, -1.4993, 0.4185, 41.3593, 0.9355, 0.0135, 0.0012, -0.3532, 0.0000, 0.0000, 0.0000, 0.0000, 0.0000, 0.0000, 0.0000
1, 1.1475, 457, 0.0152, 0.0348, -1.0160, -0.7053, -0.3344, 1.1631, 19.9649, 25.1973, -64.3379, -1.5003, 0.4172, 41.3615, 0.9355, 0.0135, 0.0012, -0.3532, 0.0000, 0.0000, 0.0000, 0.0000, 0.0000, 0.0000, 0.0000
1, 1.1500, 458, 0.0141, 0.0335, -1.0146, -0.1292, -0.4666, 1.0263, 19.9649, 25.1973, -64.3379, -1.4999, 0.4157, 41.3634, 0.9355, 0.0135, 0.0012, -0.3532, 0.0000, 0.0000, 0.0000, 0.0000, 0.0000, 0.0000, 0.0000
1, 1.1525, 459, 0.0132, 0.0329, -1.0151, 0.3726, -0.5290, 0.6086, 18.9418, 25.3142, -64.1333, -1.4982, 0.4138, 41.3634, 0.9355, 0.0135, 0.0012, -0.3532, 0.0000, 0.0000, 0.0000, 0.0000, 0.0000, 0.0000, 0.0000
1, 1.1550, 460, 0.0154, 0.0330, -1.0149, 0.6573, -0.2523, 0.4652, 18.9418, 25.3142, -64.1333, -1.4959, 0.4137, 41.3631, 0.9355, 0.0135, 0.0012, -0.3532, 0.0000, 0.0000, 0.0000, 0.0000, 0.0000, 0.0000, 0.0000
1, 1.1575, 461, 0.0142, 0.0332, -1.0136, 0.6515, 0.0252, -0.0985, 18.9418, 25.3142, -64.1333, -1.4956, 0.4154, 41.3612, 0.9355, 0.0135, 0.0012, -0.3532, 0.0000, 0.0000, 0.0000, 0.0000, 0.0000, 0.0000, 0.0000
1, 1.1600, 462, 0.0138, 0.0319, -1.0159, 0.2185, 0.1594, -0.1014, 18.9418, 25.3142, -64.1333, -1.4966, 0.4188, 41.3592, 0.9355, 0.0135, 0.0012, -0.3532, 0.0000, 0.0000, 0.0000, 0.0000, 0.0000, 0.0000, 0.0000
1, 1.1625, 463, 0.0149, 0.0358, -1.0159, -0.3521, -0.0535, 0.4602, 18.9418, 25.3142, -64.1333, -1.4997, 0.4202, 41.3587, 0.9355, 0.0135, 0.0012, -0.3532, 0.0000, 0.0000, 0.0000, 0.0000, 0.0000, 0.0000, 0.0000
1, 1.1650, 464, 0.0152, 0.0346, -1.0169, -0.9249, -0.0605, 0.9487, 19.0588, 25.8404, -64.5425, -1.5013, 0.4196, 41.3595, 0.9355, 0.0135, 0.0012, -0.3532, 0.0000, 0.0000, 0.0000, 0.0000, 0.0000, 0.0000, 0.0000
1, 1.1675, 465, 0.0144, 0.0329, -1.0173, -0.7772, -0.1993, 1.3707, 19.0588, 25.8404, -64.5425, -1.5017, 0.4182, 41.3613, 0.9355, 0.0135, 0.0012, -0.3532, 0.0000, 0.0000, 0.0000, 0.0000, 0.0000, 0.0000, 0.0000
1, 1.1700, 466, 0.0131, 0.0335, -1.0172, -0.4877, -0.5384, 1.1665, 19.0588, 25.8404, -64.5425, -1.5017, 0.4157, 41.3627, 0.9355, 0.0135, 0.0012, -0.3532, 0.0000, 0.0000, 0.0000, 0.0000, 0.0000, 0.0000, 0.0000
1, 1.1725, 467, 0.0127, 0.0363, -1.0153, 0.0141, -0.6008, 0.7488, 19.0588, 25.8404, -64.5425, -1.5025, 0.4134, 41.3629, 0.9355, 0.0135, 0.0013, -0.3532, 0.0000, 0.0000, 0.0000, 0.0000, 0.0000, 0.0000, 0.0000
1, 1.1750, 468, 0.0138, 0.0327, -1.0145, 0.4415, -0.3218, 0.3958, 19.0588, 25.8404, -64.5425, -1.5010, 0.4128, 41.3622, 0.9355, 0.0135, 0.0013, -0.3532, 0.0000, 0.0000, 0.0000, 0.0000, 0.0000, 0.0000, 0.0000
1, 1.1775, 469, 0.0146, 0.0311, -1.0144, 0.6531, -0.1122, -0.0265, 19.9649, 25.3142, -65.2149, -1.4989, 0.4144, 41.3612, 0.9355, 0.0135, 0.0012, -0.3532, 0.0000, 0.0000, 0.0000, 0.0000, 0.0000, 0.0000, 0.0000
1, 1.1800, 470, 0.0128, 0.0321, -1.0168, 0.3619, 0.2288, -0.1021, 19.9649, 25.3142, -65.2149, -1.4985, 0.4158, 41.3600, 0.9355, 0.0135, 0.0012, -0.3532, 0.0000, 0.0000, 0.0000, 0.0000, 0.0000, 0.0000, 0.0000
1, 1.1825, 471, 0.0162, 0.0329, -1.0147, -0.2158, 0.4985, -0.0374, 19.9649, 25.3142, -65.2149, -1.5000, 0.4202, 41.3590, 0.9355, 0.0135, 0.0012, -0.3532, 0.0000, 0.0000, 0.0000, 0.0000, 0.0000, 0.0000, 0.0000
1, 1.1850, 472, 0.0116, 0.0357, -1.0167, -1.1430, 0.1440, 0.8753, 19.9649, 25.3142, -65.2149, -1.5023, 0.4190, 41.3604, 0.9355, 0.0136, 0.0012, -0.3532, 0.0000, 0.0000, 0.0000, 0.0000, 0.0000, 0.0000, 0.0000
1, 1.1875, 473, 0.0116, 0.0357, -1.0167, -1.1430, 0.1440, 0.8753, 19.9649, 25.3142, -65.2149, -1.5045, 0.4178, 41.3619, 0.9355, 0.0136, 0.0012, -0.3532, 0.0000, 0.0000, 0.0000, 0.0000, 0.0000, 0.0000, 0.0000
1, 1.1900, 474, 0.0151, 0.0341, -1.0144, -0.2021, -0.4662, 0.8863, 19.9649, 25.3142, -65.2149, -1.5046, 0.4167, 41.3634, 0.9355, 0.0136, 0.0012, -0.3532, 0.0000, 0.0000, 0.0000, 0.0000, 0.0000, 0.0000, 0.0000
1, 1.1925, 475, 0.0126, 0.0341, -1.0144, 0.2990, -0.3921, 0.5365, 19.7895, 25.5481, -65.1564, -1.5041, 0.4152, 41.3637, 0.9355, 0.0136, 0.0012, -0.3532, 0.0000, 0.0000, 0.0000, 0.0000, 0.0000, 0.0000, 0.0000
1, 1.1950, 476, 0.0124, 0.0332, -1.0152, 0.4393, -0.3195, 0.0461, 19.7895, 25.5481, -65.1564, -1.5040, 0.4148, 41.3628, 0.9355, 0.0136, 0.0012, -0.3532, 0.0000, 0.0000, 0.0000, 0.0000, 0.0000, 0.0000, 0.0000
1, 1.1975, 477, 0.0136, 0.0362, -1.0158, 0.4362, -0.0446, -0.0979, 19.7895, 25.5481, -65.1564, -1.5076, 0.4168, 41.3614, 0.9355, 0.0136, 0.0012, -0.3532, 0.0000, 0.0000, 0.0000, 0.0000, 0.0000, 0.0000, 0.0000
1, 1.2000, 478, 0.0131, 0.0342, -1.0153, 0.0735, 0.2274, -0.1726, 19.7895, 25.5481, -65.1564, -1.5114, 0.4198, 41.3599, 0.9355, 0.0136, 0.0012, -0.3532, 0.0000, 0.0000, 0.0000, 0.0000, 0.0000, 0.0000, 0.0000
1, 1.2025, 479, 0.0142, 0.0335, -1.0163, -0.6429, 0.0834, 0.1778, 19.7895, 25.5481, -65.1564, -1.5136, 0.4210, 41.3592, 0.9355, 0.0137, 0.0012, -0.3532, 0.0000, 0.0000, 0.0000, 0.0000, 0.0000, 0.0000, 0.0000
1, 1.2050, 480, 0.0141, 0.0327, -1.0130, -0.9966, -0.1970, 0.8107, 19.6434, 24.7296, -64.7471, -1.5147, 0.4198, 41.3606, 0.9355, 0.0137, 0.0012, -0.3532, 0.0000, 0.0000, 0.0000, 0.0000, 0.0000, 0.0000, 0.0000
1, 1.2075, 481, 0.0131, 0.0340, -1.0179, -1.1345, -0.4080, 1.5130, 19.6434, 24.7296, -64.7471, -1.5161, 0.4175, 41.3639, 0.9355, 0.0137, 0.0013, -0.3532, 0.0000, 0.0000, 0.0000, 0.0000, 0.0000, 0.0000, 0.0000
1, 1.2100, 482, 0.0141, 0.0333, -1.0145, -0.4877, -0.5384, 1.1665, 19.6434, 24.7296, -64.7471, -1.5159, 0.4153, 41.3662, 0.9354, 0.0137, 0.0013, -0.3532, 0.0000, 0.0000, 0.0000, 0.0000, 0.0000, 0.0000, 0.0000
1, 1.2125, 483, 0.0154, 0.0326, -1.0150, 0.3019, -0.5309, 0.8183, 19.6434, 24.7296, -64.7471, -1.5140, 0.4141, 41.3676, 0.9354, 0.0136, 0.0013, -0.3532, 0.0000, 0.0000, 0.0000, 0.0000, 0.0000, 0.0000, 0.0000
1, 1.2150, 484, 0.0138, 0.0304, -1.0145, 0.6570, -0.3199, 0.3263, 19.6434, 24.7296, -64.7471, -1.5105, 0.4132, 41.3677, 0.9354, 0.0136, 0.0013, -0.3532, 0.0000, 0.0000, 0.0000, 0.0000, 0.0000, 0.0000, 0.0000
1, 1.2175, 485, 0.0128, 0.0342, -1.0180, 0.7979, -0.1122, 0.1136, 19.6726, 25.1096, -65.3025, -1.5089, 0.4127, 41.3671, 0.9354, 0.0136, 0.0013, -0.3532, 0.0000, 0.0000, 0.0000, 0.0000, 0.0000, 0.0000, 0.0000
1, 1.2200, 486, 0.0148, 0.0324, -1.0158, 0.5781, 0.2977, 0.0371, 19.6726, 25.1096, -65.3025, -1.5073, 0.4148, 41.3662, 0.9354, 0.0136, 0.0013, -0.3532, 0.0000, 0.0000, 0.0000, 0.0000, 0.0000, 0.0000, 0.0000
1, 1.2225, 487, 0.0169, 0.0333, -1.0123, 0.0037, 0.2246, 0.1770, 19.6726, 25.1096, -65.3025, -1.5119, 0.4240, 41.3655, 0.9354, 0.0136, 0.0012, -0.3532, 0.0000, 0.0000, 0.0000, 0.0000, 0.0000, 0.0000, 0.0000
1, 1.2250, 488, 0.0149, 0.0309, -1.0164, -0.4964, 0.0816, 0.5977, 19.6726, 25.1096, -65.3025, -1.5116, 0.4248, 41.3661, 0.9354, 0.0136, 0.0012, -0.3532, 0.0000, 0.0000, 0.0000, 0.0000, 0.0000, 0.0000, 0.0000
1, 1.2275, 489, 0.0136, 0.0326, -1.0181, -0.8509, -0.1979, 1.0908, 19.6726, 25.1096, -65.3025, -1.5121, 0.4232, 41.3680, 0.9354, 0.0136, 0.0012, -0.3532, 0.0000, 0.0000, 0.0000, 0.0000, 0.0000, 0.0000, 0.0000
1, 1.2300, 490, 0.0151, 0.0351, -1.0163, -0.4187, -0.3311, 0.9538, 19.2926, 24.8173, -64.7179, -1.5128, 0.4222, 41.3695, 0.9354, 0.0137, 0.0012, -0.3532, 0.0000, 0.0000, 0.0000, 0.0000, 0.0000, 0.0000, 0.0000
1, 1.2325, 491, 0.0151, 0.0351, -1.0163, -0.4187, -0.3311, 0.9538, 19.2926, 24.8173, -64.7179, -1.5134, 0.4211, 41.3710, 0.9354, 0.0137, 0.0012, -0.3532, 0.0000, 0.0000, 0.0000, 0.0000, 0.0000, 0.0000, 0.0000
1, 1.2350, 492, 0.0144, 0.0324, -1.0151, 0.8709, -0.1806, 0.1848, 19.2926, 24.8173, -64.7179, -1.5104, 0.4209, 41.3704, 0.9354, 0.0136, 0.0012, -0.3532, 0.0000, 0.0000, 0.0000, 0.0000, 0.0000, 0.0000, 0.0000
1, 1.2375, 493, 0.0126, 0.0335, -1.0150, 0.8679, 0.0262, -0.0282, 19.2926, 24.8173, -64.7179, -1.5088, 0.4209, 41.3694, 0.9354, 0.0136, 0.0012, -0.3532, 0.0000, 0.0000, 0.0000, 0.0000, 0.0000, 0.0000, 0.0000
1, 1.2400, 494, 0.0115, 0.0332, -1.0156, 0.2903, 0.2279, -0.0323, 19.2926, 24.8173, -64.7179, -1.5102, 0.4217, 41.3682, 0.9354, 0.0136, 0.0012, -0.3532, 0.0000, 0.0000, 0.0000, 0.0000, 0.0000, 0.0000, 0.0000
1, 1.2425, 495, 0.0124, 0.0314, -1.0151, -0.2102, 0.0853, 0.3185, 19.0880, 24.7881, -63.9579, -1.5109, 0.4228, 41.3678, 0.9354, 0.0136, 0.0012, -0.3532, 0.0000, 0.0000, 0.0000, 0.0000, 0.0000, 0.0000, 0.0000
1, 1.2450, 496, 0.0126, 0.0329, -1.0166, -0.5663, -0.0568, 0.7395, 19.0880, 24.7881, -63.9579, -1.5114, 0.4217, 41.3685, 0.9354, 0.0136, 0.0012, -0.3532, 0.0000, 0.0000, 0.0000, 0.0000, 0.0000, 0.0000, 0.0000
1, 1.2475, 497, 0.0131, 0.0337, -1.0170, -0.4901, -0.4000, 0.9547, 19.0880, 24.7881, -63.9579, -1.5116, 0.4196, 41.3699, 0.9354, 0.0136, 0.0012, -0.3532, 0.0000, 0.0000, 0.0000, 0.0000, 0.0000, 0.0000, 0.0000
1, 1.2500, 498, 0.0116, 0.0332, -1.0147, 0.0159, -0.6026, 1.0286, 19.0880, 24.7881, -63.9579, -1.5105, 0.4167, 41.3714, 0.9354, 0.0136, 0.0013, -0.3533, 0.0000, 0.0000, 0.0000, 0.0000, 0.0000, 0.0000, 0.0000
1, 1.2525, 499, 0.0138, 0.0324, -1.0146, 0.8773, -0.7303, 0.4728, 19.0880, 24.7881, -63.9579, -1.5067, 0.4139, 41.3716, 0.9354, 0.0136, 0.0013, -0.3533, 0.0000, 0.0000, 0.0000, 0.0000, 0.0000, 0.0000, 0.0000
1, 1.2550, 500, 0.0163, 0.0333, -1.0144, 1.2315, -0.3148, 0.1175, 20.0526, 25.5189, -64.0748, -1.5028, 0.4135, 41.3710, 0.9354, 0.0135, 0.0013, -0.3532, 0.0000, 0.0000, 0.0000, 0.0000, 0.0000, 0.0000, 0.0000
1, 1.2575, 501, 0.0132, 0.0336, -1.0136, 1.0105, 0.0285, -0.2377, 20.0526, 25.5189, -64.0748, -1.5002, 0.4132, 41.3695, 0.9354, 0.0135, 0.0013, -0.3532, 0.0000, 0.0000, 0.0000, 0.0000, 0.0000, 0.0000, 0.0000
1, 1.2600, 502, 0.0143, 0.0321, -1.0146, 0.7946, 0.0271, -0.2381, 20.0526, 25.5189, -64.0748, -1.4977, 0.4140, 41.3680, 0.9354, 0.0135, 0.0012, -0.3532, 0.0000, 0.0000, 0.0000, 0.0000, 0.0000, 0.0000, 0.0000
1, 1.2625, 503, 0.0156, 0.0354, -1.0153, 0.1467, 0.0909, -0.1705, 20.0526, 25.5189, -64.0748, -1.5036, 0.4201, 41.3664, 0.9354, 0.0136, 0.0012, -0.3532, 0.0000, 0.0000, 0.0000, 0.0000, 0.0000, 0.0000, 0.0000
1, 1.2650, 504, 0.0123, 0.0346, -1.0162, -0.2100, 0.0173, 0.2496, 20.0526, 25.5189, -64.0748, -1.5082, 0.4216, 41.3661, 0.9354, 0.0136, 0.0012, -0.3532, 0.0000, 0.0000, 0.0000, 0.0000, 0.0000, 0.0000, 0.0000
1, 1.2675, 505, 0.0139, 0.0329, -1.0144, -0.4913, -0.2631, 0.9526, 20.0526, 25.5189, -64.0748, -1.5083, 0.4204, 41.3676, 0.9354, 0.0136, 0.0012, -0.3532, 0.0000, 0.0000, 0.0000, 0.0000, 0.0000, 0.0000, 0.0000
1, 1.2700, 506, 0.0137, 0.0331, -1.0147, 0.2302, -0.4638, 0.9571, 19.2634, 25.4604, -64.9810, -1.5067, 0.4185, 41.3687, 0.9354, 0.0136, 0.0012, -0.3532, 0.0000, 0.0000, 0.0000, 0.0000, 0.0000, 0.0000, 0.0000
1, 1.2725, 507, 0.0132, 0.0308, -1.0144, 0.8062, -0.5281, 0.8892, 19.2634, 25.4604, -64.9810, -1.5026, 0.4160, 41.3697, 0.9354, 0.0135, 0.0012, -0.3532, 0.0000, 0.0000, 0.0000, 0.0000, 0.0000, 0.0000, 0.0000
1, 1.2750, 508, 0.0141, 0.0331, -1.0142, 1.0144, -0.1792, 0.1151, 19.2634, 25.4604, -64.9810, -1.4996, 0.4155, 41.3686, 0.9354, 0.0135, 0.0012, -0.3532, 0.0000, 0.0000, 0.0000, 0.0000, 0.0000, 0.0000, 0.0000
1, 1.2775, 509, 0.0141, 0.0331, -1.0142, 1.0144, -0.1792, 0.1151, 19.2634, 25.4604, -64.9810, -1.4966, 0.4150, 41.3675, 0.9354, 0.0135, 0.0012, -0.3532, 0.0000, 0.0000, 0.0000, 0.0000, 0.0000, 0.0000, 0.0000
1, 1.2800, 510, 0.0157, 0.0340, -1.0135, 0.0030, 0.1575, -0.0319, 19.2634, 25.4604, -64.9810, -1.5067, 0.4276, 41.3656, 0.9354, 0.0136, 0.0012, -0.3532, 0.0000, 0.0000, 0.0000, 0.0000, 0.0000, 0.0000, 0.0000
1, 1.2825, 511, 0.0133, 0.0311, -1.0142, -0.5737, 0.3582, 0.1039, 19.9357, 25.7235, -64.6010, -1.5072, 0.4286, 41.3647, 0.9354, 0.0136, 0.0011, -0.3532, 0.0000, 0.0000, 0.0000, 0.0000, 0.0000, 0.0000, 0.0000
1, 1.2850, 512, 0.0141, 0.0310, -1.0147, -0.7827, -0.0577, 0.6692, 19.9357, 25.7235, -64.6010, -1.5075, 0.4281, 41.3653, 0.9354, 0.0136, 0.0012, -0.3532, 0.0000, 0.0000, 0.0000, 0.0000, 0.0000, 0.0000, 0.0000
1, 1.2875, 513, 0.0121, 0.0340, -1.0146, -0.5607, -0.4699, 1.0954, 19.9357, 25.7235, -64.6010, -1.5080, 0.4256, 41.3671, 0.9354, 0.0136, 0.0012, -0.3532, 0.0000, 0.0000, 0.0000, 0.0000, 0.0000, 0.0000, 0.0000
1, 1.2900, 514, 0.0148, 0.0329, -1.0153, -0.2022, -0.3982, 0.9552, 19.9357, 25.7235, -64.6010, -1.5075, 0.4245, 41.3685, 0.9354, 0.0136, 0.0012, -0.3532, 0.0000, 0.0000, 0.0000, 0.0000, 0.0000, 0.0000, 0.0000
1, 1.2925, 515, 0.0128, 0.0305, -1.0135, 0.3698, -0.2547, 0.5346, 19.9357, 25.7235, -64.6010, -1.5052, 0.4236, 41.3687, 0.9354, 0.0136, 0.0012, -0.3532, 0.0000, 0.0000, 0.0000, 0.0000, 0.0000, 0.0000, 0.0000
1, 1.2950, 516, 0.0131, 0.0337, -1.0162, 0.6534, -0.0446, 0.1123, 20.2572, 25.6942, -64.9518, -1.5047, 0.4240, 41.3681, 0.9354, 0.0136, 0.0012, -0.3532, 0.0000, 0.0000, 0.0000, 0.0000, 0.0000, 0.0000, 0.0000
1, 1.2975, 517, 0.0139, 0.0345, -1.0155, 0.4344, 0.1608, -0.1010, 20.2572, 25.6942, -64.9518, -1.5060, 0.4261, 41.3670, 0.9354, 0.0136, 0.0012, -0.3532, 0.0000, 0.0000, 0.0000, 0.0000, 0.0000, 0.0000, 0.0000
1, 1.3000, 518, 0.0151, 0.0324, -1.0136, 0.0734, 0.2954, -0.1037, 20.2572, 25.6942, -64.9518, -1.5082, 0.4315, 41.3657, 0.9354, 0.0136, 0.0011, -0.3532, 0.0000, 0.0000, 0.0000, 0.0000, 0.0000, 0.0000, 0.0000
1, 1.3025, 519, 0.0137, 0.0338, -1.0132, -0.4292, 0.2907, 0.1052, 20.2572, 25.6942, -64.9518, -1.5107, 0.4333, 41.3650, 0.9354, 0.0137, 0.0011, -0.3532, 0.0000, 0.0000, 0.0000, 0.0000, 0.0000, 0.0000, 0.0000
1, 1.3050, 520, 0.0146, 0.0315, -1.0153, -0.8564, 0.1473, 0.6660, 20.2572, 25.6942, -64.9518, -1.5114, 0.4334, 41.3658, 0.9354, 0.0137, 0.0011, -0.3532, 0.0000, 0.0000, 0.0000, 0.0000, 0.0000, 0.0000, 0.0000
1, 1.3075, 521, 0.0151, 0.0329, -1.0129, -1.1408, -0.0619, 0.9483, 20.3449, 25.8696, -64.4841, -1.5130, 0.4328, 41.3674, 0.9354, 0.0137, 0.0011, -0.3532, 0.0000, 0.0000, 0.0000, 0.0000, 0.0000, 0.0000, 0.0000
1, 1.3100, 522, 0.0128, 0.0340, -1.0139, -0.6350, -0.1965, 1.0912, 20.3449, 25.8696, -64.4841, -1.5138, 0.4313, 41.3693, 0.9354, 0.0137, 0.0011, -0.3532, 0.0000, 0.0000, 0.0000, 0.0000, 0.0000, 0.0000, 0.0000
1, 1.3125, 523, 0.0118, 0.0342, -1.0136, 0.0143, -0.4652, 0.9566, 20.3449, 25.8696, -64.4841, -1.5137, 0.4291, 41.3709, 0.9354, 0.0137, 0.0012, -0.3533, 0.0000, 0.0000, 0.0000, 0.0000, 0.0000, 0.0000, 0.0000
1, 1.3150, 524, 0.0116, 0.0332, -1.0155, 0.5846, -0.3199, 0.2562, 20.3449, 25.8696, -64.4841, -1.5121, 0.4273, 41.3707, 0.9354, 0.0137, 0.0012, -0.3532, 0.0000, 0.0000, 0.0000, 0.0000, 0.0000, 0.0000, 0.0000
1, 1.3175, 525, 0.0138, 0.0350, -1.0170, 0.6533, 0.0234, 0.1813, 20.3449, 25.8696, -64.4841, -1.5121, 0.4282, 41.3702, 0.9354, 0.0137, 0.0012, -0.3532, 0.0000, 0.0000, 0.0000, 0.0000, 0.0000, 0.0000, 0.0000
1, 1.3200, 526, 0.0142, 0.0343, -1.0141, 0.2890, 0.2292, -0.2422, 19.4680, 25.6065, -64.4841, -1.5134, 0.4303, 41.3682, 0.9354, 0.0137, 0.0012, -0.3532, 0.0000, 0.0000, 0.0000, 0.0000, 0.0000, 0.0000, 0.0000
1, 1.3225, 527, 0.0142, 0.0343, -1.0141, 0.2890, 0.2292, -0.2422, 19.4680, 25.6065, -64.4841, -1.5146, 0.4325, 41.3662, 0.9354, 0.0137, 0.0011, -0.3532, 0.0000, 0.0000, 0.0000, 0.0000, 0.0000, 0.0000, 0.0000
1, 1.3250, 528, 0.0137, 0.0320, -1.0149, -0.8529, -0.0600, 0.9488, 19.4680, 25.6065, -64.4841, -1.5152, 0.4315, 41.3673, 0.9354, 0.0137, 0.0011, -0.3532, 0.0000, 0.0000, 0.0000, 0.0000, 0.0000, 0.0000, 0.0000
1, 1.3275, 529, 0.0128, 0.0327, -1.0139, -0.7049, -0.3348, 1.2330, 19.4680, 25.6065, -64.4841, -1.5155, 0.4294, 41.3692, 0.9354, 0.0137, 0.0012, -0.3532, 0.0000, 0.0000, 0.0000, 0.0000, 0.0000, 0.0000, 0.0000
1, 1.3300, 530, 0.0138, 0.0314, -1.0172, -0.0587, -0.3968, 0.8855, 19.4680, 25.6065, -64.4841, -1.5142, 0.4282, 41.3701, 0.9354, 0.0137, 0.0012, -0.3532, 0.0000, 0.0000, 0.0000, 0.0000, 0.0000, 0.0000, 0.0000
1, 1.3325, 531, 0.0146, 0.0342, -1.0150, 0.4419, -0.3222, 0.4658, 20.1111, 25.1388, -64.6887, -1.5133, 0.4277, 41.3707, 0.9354, 0.0137, 0.0012, -0.3532, 0.0000, 0.0000, 0.0000, 0.0000, 0.0000, 0.0000, 0.0000
1, 1.3350, 532, 0.0148, 0.0337, -1.0142, 0.7254, -0.0441, 0.1125, 20.1111, 25.1388, -64.6887, -1.5124, 0.4291, 41.3703, 0.9354, 0.0137, 0.0012, -0.3532, 0.0000, 0.0000, 0.0000, 0.0000, 0.0000, 0.0000, 0.0000
1, 1.3375, 533, 0.0133, 0.0337, -1.0153, 0.7223, 0.1627, -0.1004, 20.1111, 25.1388, -64.6887, -1.5111, 0.4296, 41.3694, 0.9354, 0.0137, 0.0012, -0.3532, 0.0000, 0.0000, 0.0000, 0.0000, 0.0000, 0.0000, 0.0000
1, 1.3400, 534, 0.0138, 0.0333, -1.0147, 0.4343, 0.2288, -0.0321, 20.1111, 25.1388, -64.6887, -1.5114, 0.4318, 41.3686, 0.9354, 0.0137, 0.0011, -0.3532, 0.0000, 0.0000, 0.0000, 0.0000, 0.0000, 0.0000, 0.0000
1, 1.3425, 535, 0.0143, 0.0314, -1.0153, 0.0029, 0.4291, 0.3138, 20.1111, 25.1388, -64.6887, -1.5111, 0.4344, 41.3686, 0.9354, 0.0137, 0.0011, -0.3532, 0.0000, 0.0000, 0.0000, 0.0000, 0.0000, 0.0000, 0.0000
1, 1.3450, 536, 0.0131, 0.0354, -1.0162, -0.7828, 0.0103, 0.7381, 20.1111, 25.1388, -64.6887, -1.5131, 0.4337, 41.3699, 0.9354, 0.0137, 0.0011, -0.3532, 0.0000, 0.0000, 0.0000, 0.0000, 0.0000, 0.0000, 0.0000
1, 1.3475, 537, 0.0142, 0.0342, -1.0159, -0.8513, -0.1974, 1.0208, 20.4911, 24.5542, -64.8348, -1.5142, 0.4324, 41.3724, 0.9354, 0.0137, 0.0011, -0.3533, 0.0000, 0.0000, 0.0000, 0.0000, 0.0000, 0.0000, 0.0000
1, 1.3500, 538, 0.0157, 0.0342, -1.0135, -0.5617, -0.4010, 1.0245, 20.4911, 24.5542, -64.8348, -1.5148, 0.4312, 41.3749, 0.9354, 0.0137, 0.0012, -0.3533, 0.0000, 0.0000, 0.0000, 0.0000, 0.0000, 0.0000, 0.0000
1, 1.3525, 539, 0.0136, 0.0335, -1.0136, -0.0592, -0.3963, 0.8156, 20.4911, 24.5542, -64.8348, -1.5146, 0.4300, 41.3770, 0.9354, 0.0137, 0.0012, -0.3533, 0.0000, 0.0000, 0.0000, 0.0000, 0.0000, 0.0000, 0.0000
1, 1.3550, 540, 0.0152, 0.0341, -1.0145, 0.4390, -0.1834, 0.1839, 20.4911, 24.5542, -64.8348, -1.5149, 0.4316, 41.3773, 0.9354, 0.0137, 0.0011, -0.3533, 0.0000, 0.0000, 0.0000, 0.0000, 0.0000, 0.0000, 0.0000
1, 1.3575, 541, 0.0141, 0.0347, -1.0156, 0.5060, 0.1617, -0.1708, 20.4911, 24.5542, -64.8348, -1.5152, 0.4330, 41.3769, 0.9354, 0.0137, 0.0011, -0.3533, 0.0000, 0.0000, 0.0000, 0.0000, 0.0000, 0.0000, 0.0000
1, 1.3600, 542, 0.0123, 0.0340, -1.0142, 0.1454, 0.2959, -0.1036, 19.9942, 24.7881, -64.2794, -1.5178, 0.4348, 41.3760, 0.9354, 0.0137, 0.0011, -0.3533, 0.0000, 0.0000, 0.0000, 0.0000, 0.0000, 0.0000, 0.0000
1, 1.3625, 543, 0.0118, 0.0330, -1.0150, -0.5013, 0.3583, 0.1740, 19.9942, 24.7881, -64.2794, -1.5189, 0.4348, 41.3759, 0.9354, 0.0137, 0.0011, -0.3533, 0.0000, 0.0000, 0.0000, 0.0000, 0.0000, 0.0000, 0.0000
1, 1.3650, 544, 0.0141, 0.0338, -1.0134, -0.8568, 0.1477, 0.5960, 19.9942, 24.7881, -64.2794, -1.5204, 0.4347, 41.3769, 0.9354, 0.0138, 0.0011, -0.3533, 0.0000, 0.0000, 0.0000, 0.0000, 0.0000, 0.0000, 0.0000
1, 1.3675, 545, 0.0124, 0.0325, -1.0152, -0.7048, -0.4028, 1.1641, 19.9942, 24.7881, -64.2794, -1.5205, 0.4323, 41.3794, 0.9354, 0.0137, 0.0012, -0.3533, 0.0000, 0.0000, 0.0000, 0.0000, 0.0000, 0.0000, 0.0000
1, 1.3700, 546, 0.0124, 0.0325, -1.0152, -0.7048, -0.4028, 1.1641, 19.9942, 24.7881, -64.2794, -1.5206, 0.4299, 41.3819, 0.9354, 0.0137, 0.0012, -0.3533, 0.0000, 0.0000, 0.0000, 0.0000, 0.0000, 0.0000, 0.0000
1, 1.3725, 547, 0.0149, 0.0313, -1.0139, 0.6580, -0.3888, 0.3973, 19.9065, 24.7881, -63.3733, -1.5174, 0.4291, 41.3823, 0.9354, 0.0137, 0.0012, -0.3533, 0.0000, 0.0000, 0.0000, 0.0000, 0.0000, 0.0000, 0.0000
1, 1.3750, 548, 0.0142, 0.0341, -1.0157, 0.5090, -0.0451, 0.0421, 19.9065, 24.7881, -63.3733, -1.5185, 0.4312, 41.3817, 0.9354, 0.0137, 0.0012, -0.3533, 0.0000, 0.0000, 0.0000, 0.0000, 0.0000, 0.0000, 0.0000
1, 1.3775, 549, 0.0165, 0.0341, -1.0173, 0.3626, 0.0923, -0.1700, 19.9065, 24.7881, -63.3733, -1.5195, 0.4351, 41.3805, 0.9354, 0.0137, 0.0011, -0.3533, 0.0000, 0.0000, 0.0000, 0.0000, 0.0000, 0.0000, 0.0000
1, 1.3800, 550, 0.0154, 0.0333, -1.0167, -0.2129, 0.1561, -0.0323, 19.9065, 24.7881, -63.3733, -1.5230, 0.4403, 41.3797, 0.9354, 0.0138, 0.0011, -0.3533, 0.0000, 0.0000, 0.0000, 0.0000, 0.0000, 0.0000, 0.0000
1, 1.3825, 551, 0.0122, 0.0346, -1.0148, -0.7136, 0.0816, 0.3875, 19.9065, 24.7881, -63.3733, -1.5250, 0.4396, 41.3800, 0.9354, 0.0138, 0.0011, -0.3533, 0.0000, 0.0000, 0.0000, 0.0000, 0.0000, 0.0000, 0.0000
1, 1.3850, 552, 0.0127, 0.0340, -1.0119, -1.0684, -0.0619, 1.0184, 19.9649, 25.0219, -63.6656, -1.5265, 0.4381, 41.3820, 0.9354, 0.0138, 0.0011, -0.3533, 0.0000, 0.0000, 0.0000, 0.0000, 0.0000, 0.0000, 0.0000
1, 1.3875, 553, 0.0137, 0.0330, -1.0159, -0.9227, -0.2664, 1.0217, 19.9649, 25.0219, -63.6656, -1.5272, 0.4363, 41.3839, 0.9354, 0.0138, 0.0011, -0.3534, 0.0000, 0.0000, 0.0000, 0.0000, 0.0000, 0.0000, 0.0000
1, 1.3900, 554, 0.0139, 0.0319, -1.0141, -0.2012, -0.4671, 1.0262, 19.9649, 25.0219, -63.6656, -1.5261, 0.4345, 41.3858, 0.9354, 0.0138, 0.0012, -0.3534, 0.0000, 0.0000, 0.0000, 0.0000, 0.0000, 0.0000, 0.0000
1, 1.3925, 555, 0.0134, 0.0335, -1.0144, 0.0867, -0.6688, 0.7500, 19.9649, 25.0219, -63.6656, -1.5250, 0.4321, 41.3870, 0.9354, 0.0138, 0.0012, -0.3534, 0.0000, 0.0000, 0.0000, 0.0000, 0.0000, 0.0000, 0.0000
1, 1.3950, 556, 0.0134, 0.0342, -1.0157, 0.2986, -0.3916, 0.4665, 19.9649, 25.0219, -63.6656, -1.5243, 0.4308, 41.3875, 0.9354, 0.0138, 0.0012, -0.3534, 0.0000, 0.0000, 0.0000, 0.0000, 0.0000, 0.0000, 0.0000
1, 1.3975, 557, 0.0158, 0.0335, -1.0184, 0.2926, -0.0460, -0.0282, 19.5265, 25.0512, -64.0748, -1.5264, 0.4359, 41.3862, 0.9354, 0.0138, 0.0011, -0.3534, 0.0000, 0.0000, 0.0000, 0.0000, 0.0000, 0.0000, 0.0000
1, 1.4000, 558, 0.0151, 0.0342, -1.0158, 0.1464, 0.2269, -0.0326, 19.5265, 25.0512, -64.0748, -1.5299, 0.4409, 41.3849, 0.9354, 0.0138, 0.0011, -0.3534, 0.0000, 0.0000, 0.0000, 0.0000, 0.0000, 0.0000, 0.0000
1, 1.4025, 559, 0.0118, 0.0341, -1.0136, -0.3562, 0.2222, 0.1763, 19.5265, 25.0512, -64.0748, -1.5322, 0.4411, 41.3842, 0.9354, 0.0139, 0.0011, -0.3534, 0.0000, 0.0000, 0.0000, 0.0000, 0.0000, 0.0000, 0.0000
1, 1.4050, 560, 0.0161, 0.0356, -1.0142, -0.7809, -0.0595, 0.9490, 19.5265, 25.0512, -64.0748, -1.5336, 0.4408, 41.3856, 0.9354, 0.0139, 0.0011, -0.3534, 0.0000, 0.0000, 0.0000, 0.0000, 0.0000, 0.0000, 0.0000
1, 1.4075, 561, 0.0141, 0.0335, -1.0170, -1.0655, -0.2007, 1.3002, 19.5265, 25.0512, -64.0748, -1.5346, 0.4391, 41.3880, 0.9354, 0.0139, 0.0011, -0.3534, 0.0000, 0.0000, 0.0000, 0.0000, 0.0000, 0.0000, 0.0000
1, 1.4100, 562, 0.0144, 0.0351, -1.0175, -0.7749, -0.4732, 1.3748, 19.9357, 24.6419, -63.6364, -1.5353, 0.4368, 41.3910, 0.9354, 0.0139, 0.0012, -0.3534, 0.0000, 0.0000, 0.0000, 0.0000, 0.0000, 0.0000, 0.0000
1, 1.4125, 563, 0.0152, 0.0331, -1.0174, 0.4435, -0.4596, 0.5378, 19.9357, 24.6419, -63.6364, -1.5330, 0.4355, 41.3919, 0.9354, 0.0139, 0.0012, -0.3534, 0.0000, 0.0000, 0.0000, 0.0000, 0.0000, 0.0000, 0.0000
1, 1.4150, 564, 0.0152, 0.0331, -1.0174, 0.4435, -0.4596, 0.5378, 19.9357, 24.6419, -63.6364, -1.5307, 0.4343, 41.3927, 0.9354, 0.0138, 0.0012, -0.3534, 0.0000, 0.0000, 0.0000, 0.0000, 0.0000, 0.0000, 0.0000
1, 1.4175, 565, 0.0146, 0.0335, -1.0190, 0.5073, 0.1603, 0.0391, 19.9357, 24.6419, -63.6364, -1.5299, 0.4360, 41.3923, 0.9354, 0.0138, 0.0012, -0.3534, 0.0000, 0.0000, 0.0000, 0.0000, 0.0000, 0.0000, 0.0000
1, 1.4200, 566, 0.0119, 0.0354, -1.0166, -0.0683, 0.2241, 0.1768, 19.9357, 24.6419, -63.6364, -1.5342, 0.4371, 41.3922, 0.9354, 0.0139, 0.0012, -0.3534, 0.0000, 0.0000, 0.0000, 0.0000, 0.0000, 0.0000, 0.0000
1, 1.4225, 567, 0.0143, 0.0338, -1.0158, -0.6409, 0.1491, 0.5964, 19.9357, 24.6419, -63.6364, -1.5351, 0.4372, 41.3931, 0.9354, 0.0139, 0.0012, -0.3534, 0.0000, 0.0000, 0.0000, 0.0000, 0.0000, 0.0000, 0.0000
1, 1.4250, 568, 0.0151, 0.0326, -1.0151, -0.9253, -0.0600, 0.8788, 19.9649, 25.4604, -63.4025, -1.5358, 0.4365, 41.3944, 0.9354, 0.0139, 0.0012, -0.3534, 0.0000, 0.0000, 0.0000, 0.0000, 0.0000, 0.0000, 0.0000
1, 1.4275, 569, 0.0143, 0.0335, -1.0155, -0.8500, -0.4024, 0.9540, 19.9649, 25.4604, -63.4025, -1.5365, 0.4346, 41.3959, 0.9353, 0.0139, 0.0012, -0.3535, 0.0000, 0.0000, 0.0000, 0.0000, 0.0000, 0.0000, 0.0000
1, 1.4300, 570, 0.0138, 0.0317, -1.0156, -0.3456, -0.4676, 0.9560, 19.9649, 25.4604, -63.4025, -1.5356, 0.4326, 41.3974, 0.9353, 0.0139, 0.0012, -0.3535, 0.0000, 0.0000, 0.0000, 0.0000, 0.0000, 0.0000, 0.0000
1, 1.4325, 571, 0.0129, 0.0345, -1.0156, 0.1550, -0.3930, 0.5362, 19.9649, 25.4604, -63.4025, -1.5354, 0.4312, 41.3977, 0.9353, 0.0139, 0.0012, -0.3535, 0.0000, 0.0000, 0.0000, 0.0000, 0.0000, 0.0000, 0.0000
1, 1.4350, 572, 0.0123, 0.0336, -1.0147, 0.4385, -0.1150, 0.1829, 19.9649, 25.4604, -63.4025, -1.5353, 0.4310, 41.3972, 0.9353, 0.0139, 0.0012, -0.3535, 0.0000, 0.0000, 0.0000, 0.0000, 0.0000, 0.0000, 0.0000
1, 1.4375, 573, 0.0142, 0.0356, -1.0149, 0.5794, 0.0928, -0.0297, 19.1464, 25.4019, -63.9579, -1.5363, 0.4327, 41.3954, 0.9353, 0.0139, 0.0012, -0.3535, 0.0000, 0.0000, 0.0000, 0.0000, 0.0000, 0.0000, 0.0000
1, 1.4400, 574, 0.0137, 0.0348, -1.0153, 0.2176, 0.3639, 0.0354, 19.1464, 25.4019, -63.9579, -1.5382, 0.4351, 41.3938, 0.9354, 0.0139, 0.0012, -0.3534, 0.0000, 0.0000, 0.0000, 0.0000, 0.0000, 0.0000, 0.0000
